# RaceRender Data: TrackAddict 4.8.2 on iOS 26.0 [iPhone14,2] (Mode: 0)
# GPS: iOS; Type: 0
# OBD Mode: BLE; ID: ""
# OBD Settings: AP1;AF1;RPR0
# User Settings: U1;AS1;LT0/1;EC0;VC0;VQ3;VS0
# Device Free Space: 6502 MB
"Time","UTC Time","Lap","Predicted Lap Time","Predicted vs Best Lap","GPS_Update","GPS_Delay","Latitude","Longitude","Altitude (m)","Altitude (ft)","Speed (Km/h)","Heading","Accuracy (m)","Accel X","Accel Y","Accel Z","Brake (calculated)","Barometric Pressure (kPa)","Pressure Altitude (m)"
0.000,1758485337.000,0,0,0,1,0.000,19.0275241,-97.9899025,2297.6,7538,24.9,213.8,6.7,-0.27,0.65,-0.75,0,0.00,0.0
0.007,1758485337.007,0,0,0,0,0.000,19.0275241,-97.9899025,2297.6,7538,24.9,213.8,6.7,-0.33,0.64,-0.79,0,0.00,0.0
0.011,1758485337.011,0,0,0,1,0.000,19.0274644,-97.9899451,2297.5,7538,26.7,213.4,6.1,-0.26,0.64,-0.75,0,0.00,0.0
0.062,1758485337.062,0,0,0,0,0.000,19.0274644,-97.9899451,2297.5,7538,26.7,213.4,6.1,-0.33,0.64,-0.76,0,0.00,0.0
0.113,1758485337.113,0,0,0,0,0.000,19.0274644,-97.9899451,2297.5,7538,26.7,213.4,6.1,-0.24,0.63,-0.74,0,0.00,0.0
0.163,1758485337.163,0,0,0,0,0.000,19.0274644,-97.9899451,2297.5,7538,26.7,213.4,6.1,-0.25,0.64,-0.76,0,0.00,0.0
0.213,1758485337.213,0,0,0,0,0.000,19.0274644,-97.9899451,2297.5,7538,26.7,213.4,6.1,-0.25,0.64,-0.75,0,0.00,0.0
0.263,1758485337.263,0,0,0,0,0.000,19.0274644,-97.9899451,2297.5,7538,26.7,213.4,6.1,-0.25,0.64,-0.75,0,0.00,0.0
0.313,1758485337.313,0,0,0,0,0.000,19.0274644,-97.9899451,2297.5,7538,26.7,213.4,6.1,-0.28,0.68,-0.72,0,0.00,0.0
0.364,1758485337.364,0,0,0,0,0.000,19.0274644,-97.9899451,2297.5,7538,26.7,213.4,6.1,-0.24,0.64,-0.71,0,0.00,0.0
0.414,1758485337.414,0,0,0,0,0.000,19.0274644,-97.9899451,2297.5,7538,26.7,213.4,6.1,-0.25,0.65,-0.71,0,0.00,0.0
0.464,1758485337.464,0,0,0,0,0.000,19.0274644,-97.9899451,2297.5,7538,26.7,213.4,6.1,-0.25,0.65,-0.75,0,0.00,0.0
0.514,1758485337.514,0,0,0,0,0.000,19.0274644,-97.9899451,2297.5,7538,26.7,213.4,6.1,-0.25,0.65,-0.75,0,0.00,0.0
0.565,1758485337.565,0,0,0,0,0.000,19.0274644,-97.9899451,2297.5,7538,26.7,213.4,6.1,-0.32,0.69,-0.77,0,0.00,0.0
0.615,1758485337.615,0,0,0,0,0.000,19.0274644,-97.9899451,2297.5,7538,26.7,213.4,6.1,-0.12,0.62,-0.71,0,0.00,0.0
0.665,1758485337.665,0,0,0,0,0.000,19.0274644,-97.9899451,2297.5,7538,26.7,213.4,6.1,-0.35,0.69,-0.77,0,0.00,0.0
0.715,1758485337.715,0,0,0,0,0.000,19.0274644,-97.9899451,2297.5,7538,26.7,213.4,6.1,-0.30,0.62,-0.74,0,0.00,0.0
0.765,1758485337.765,0,0,0,0,0.000,19.0274644,-97.9899451,2297.5,7538,26.7,213.4,6.1,-0.30,0.64,-0.74,0,0.00,0.0
0.816,1758485337.816,0,0,0,0,0.000,19.0274644,-97.9899451,2297.5,7538,26.7,213.4,6.1,-0.30,0.64,-0.73,0,0.00,0.0
0.866,1758485337.866,0,0,0,0,0.000,19.0274644,-97.9899451,2297.5,7538,26.7,213.4,6.1,-0.19,0.66,-0.73,0,0.00,0.0
0.916,1758485337.916,0,0,0,0,0.000,19.0274644,-97.9899451,2297.5,7538,26.7,213.4,6.1,-0.26,0.68,-0.73,0,0.00,0.0
0.966,1758485337.966,0,0,0,0,0.000,19.0274644,-97.9899451,2297.5,7538,26.7,213.4,6.1,-0.26,0.66,-0.75,0,0.00,0.0
1.005,1758485338.005,0,0,0,1,0.000,19.0274033,-97.9899893,2297.6,7538,28.2,212.8,6.3,-0.26,0.60,-0.73,0,0.00,0.0
1.057,1758485338.057,0,0,0,0,0.000,19.0274033,-97.9899893,2297.6,7538,28.2,212.8,6.3,-0.27,0.60,-0.70,0,0.00,0.0
1.107,1758485338.107,0,0,0,0,0.000,19.0274033,-97.9899893,2297.6,7538,28.2,212.8,6.3,-0.27,0.60,-0.70,0,0.00,0.0
1.157,1758485338.157,0,0,0,0,0.000,19.0274033,-97.9899893,2297.6,7538,28.2,212.8,6.3,-0.27,0.64,-0.70,0,0.00,0.0
1.207,1758485338.207,0,0,0,0,0.000,19.0274033,-97.9899893,2297.6,7538,28.2,212.8,6.3,-0.30,0.64,-0.81,0,0.00,0.0
1.257,1758485338.257,0,0,0,0,0.000,19.0274033,-97.9899893,2297.6,7538,28.2,212.8,6.3,-0.18,0.64,-0.68,0,0.00,0.0
1.308,1758485338.308,0,0,0,0,0.000,19.0274033,-97.9899893,2297.6,7538,28.2,212.8,6.3,-0.24,0.72,-0.67,0,0.00,0.0
1.358,1758485338.358,0,0,0,0,0.000,19.0274033,-97.9899893,2297.6,7538,28.2,212.8,6.3,-0.24,0.65,-0.67,0,0.00,0.0
1.408,1758485338.408,0,0,0,0,0.000,19.0274033,-97.9899893,2297.6,7538,28.2,212.8,6.3,-0.24,0.65,-0.73,0,0.00,0.0
1.459,1758485338.459,0,0,0,0,0.000,19.0274033,-97.9899893,2297.6,7538,28.2,212.8,6.3,-0.26,0.65,-0.73,0,0.00,0.0
1.509,1758485338.509,0,0,0,0,0.000,19.0274033,-97.9899893,2297.6,7538,28.2,212.8,6.3,-0.26,0.60,-0.73,0,0.00,0.0
1.559,1758485338.559,0,0,0,0,0.000,19.0274033,-97.9899893,2297.6,7538,28.2,212.8,6.3,-0.26,0.60,-0.73,0,0.00,0.0
1.609,1758485338.609,0,0,0,0,0.000,19.0274033,-97.9899893,2297.6,7538,28.2,212.8,6.3,-0.43,0.60,-0.73,0,0.00,0.0
1.659,1758485338.659,0,0,0,0,0.000,19.0274033,-97.9899893,2297.6,7538,28.2,212.8,6.3,-0.26,0.56,-0.73,0,0.00,0.0
1.709,1758485338.709,0,0,0,0,0.000,19.0274033,-97.9899893,2297.6,7538,28.2,212.8,6.3,-0.26,0.67,-0.73,0,0.00,0.0
1.760,1758485338.760,0,0,0,0,0.000,19.0274033,-97.9899893,2297.6,7538,28.2,212.8,6.3,-0.26,0.67,-0.73,0,0.00,0.0
1.810,1758485338.810,0,0,0,0,0.000,19.0274033,-97.9899893,2297.6,7538,28.2,212.8,6.3,-0.22,0.67,-0.71,0,0.00,0.0
1.860,1758485338.860,0,0,0,0,0.000,19.0274033,-97.9899893,2297.6,7538,28.2,212.8,6.3,-0.22,0.67,-0.71,0,0.00,0.0
1.910,1758485338.910,0,0,0,0,0.000,19.0274033,-97.9899893,2297.6,7538,28.2,212.8,6.3,-0.22,0.67,-0.71,0,0.00,0.0
1.961,1758485338.961,0,0,0,0,0.000,19.0274033,-97.9899893,2297.6,7538,28.2,212.8,6.3,-0.25,0.67,-0.70,0,0.00,0.0
2.007,1758485339.007,0,0,0,1,0.000,19.0273389,-97.9900307,2297.6,7538,29.6,211.9,6.4,-0.25,0.67,-0.72,0,0.00,0.0
2.061,1758485339.061,0,0,0,0,0.000,19.0273389,-97.9900307,2297.6,7538,29.6,211.9,6.4,-0.25,0.62,-0.72,0,0.00,0.0
2.111,1758485339.111,0,0,0,0,0.000,19.0273389,-97.9900307,2297.6,7538,29.6,211.9,6.4,-0.19,0.62,-0.72,0,0.00,0.0
2.161,1758485339.161,0,0,0,0,0.000,19.0273389,-97.9900307,2297.6,7538,29.6,211.9,6.4,-0.26,0.62,-0.71,0,0.00,0.0
2.212,1758485339.212,0,0,0,0,0.000,19.0273389,-97.9900307,2297.6,7538,29.6,211.9,6.4,-0.26,0.62,-0.71,0,0.00,0.0
2.262,1758485339.262,0,0,0,0,0.000,19.0273389,-97.9900307,2297.6,7538,29.6,211.9,6.4,-0.26,0.66,-0.73,0,0.00,0.0
2.312,1758485339.312,0,0,0,0,0.000,19.0273389,-97.9900307,2297.6,7538,29.6,211.9,6.4,-0.29,0.66,-0.74,0,0.00,0.0
2.362,1758485339.362,0,0,0,0,0.000,19.0273389,-97.9900307,2297.6,7538,29.6,211.9,6.4,-0.29,0.66,-0.75,0,0.00,0.0
2.412,1758485339.412,0,0,0,0,0.000,19.0273389,-97.9900307,2297.6,7538,29.6,211.9,6.4,-0.29,0.69,-0.75,0,0.00,0.0
2.463,1758485339.463,0,0,0,0,0.000,19.0273389,-97.9900307,2297.6,7538,29.6,211.9,6.4,-0.25,0.68,-0.70,0,0.00,0.0
2.513,1758485339.513,0,0,0,0,0.000,19.0273389,-97.9900307,2297.6,7538,29.6,211.9,6.4,-0.25,0.68,-0.70,0,0.00,0.0
2.563,1758485339.563,0,0,0,0,0.000,19.0273389,-97.9900307,2297.6,7538,29.6,211.9,6.4,-0.25,0.68,-0.70,0,0.00,0.0
2.613,1758485339.613,0,0,0,0,0.000,19.0273389,-97.9900307,2297.6,7538,29.6,211.9,6.4,-0.27,0.64,-0.71,0,0.00,0.0
2.663,1758485339.663,0,0,0,0,0.000,19.0273389,-97.9900307,2297.6,7538,29.6,211.9,6.4,-0.25,0.64,-0.71,0,0.00,0.0
2.714,1758485339.714,0,0,0,0,0.000,19.0273389,-97.9900307,2297.6,7538,29.6,211.9,6.4,-0.27,0.64,-0.74,0,0.00,0.0
2.764,1758485339.764,0,0,0,0,0.000,19.0273389,-97.9900307,2297.6,7538,29.6,211.9,6.4,-0.25,0.62,-0.74,0,0.00,0.0
2.814,1758485339.814,0,0,0,0,0.000,19.0273389,-97.9900307,2297.6,7538,29.6,211.9,6.4,-0.30,0.65,-0.75,0,0.00,0.0
2.864,1758485339.864,0,0,0,0,0.000,19.0273389,-97.9900307,2297.6,7538,29.6,211.9,6.4,-0.28,0.62,-0.68,0,0.00,0.0
2.915,1758485339.915,0,0,0,0,0.000,19.0273389,-97.9900307,2297.6,7538,29.6,211.9,6.4,-0.28,0.61,-0.70,0,0.00,0.0
2.965,1758485339.965,0,0,0,0,0.000,19.0273389,-97.9900307,2297.6,7538,29.6,211.9,6.4,-0.28,0.61,-0.70,0,0.00,0.0
3.006,1758485340.006,0,0,0,1,0.000,19.0272690,-97.9900722,2297.4,7537,30.6,210.6,5.9,-0.19,0.64,-0.70,0,0.00,0.0
3.055,1758485340.055,0,0,0,0,0.000,19.0272690,-97.9900722,2297.4,7537,30.6,210.6,5.9,-0.28,0.64,-0.78,0,0.00,0.0
3.105,1758485340.105,0,0,0,0,0.000,19.0272690,-97.9900722,2297.4,7537,30.6,210.6,5.9,-0.27,0.63,-0.73,0,0.00,0.0
3.155,1758485340.155,0,0,0,0,0.000,19.0272690,-97.9900722,2297.4,7537,30.6,210.6,5.9,-0.27,0.63,-0.73,0,0.00,0.0
3.206,1758485340.206,0,0,0,0,0.000,19.0272690,-97.9900722,2297.4,7537,30.6,210.6,5.9,-0.27,0.62,-0.73,0,0.00,0.0
3.256,1758485340.256,0,0,0,0,0.000,19.0272690,-97.9900722,2297.4,7537,30.6,210.6,5.9,-0.23,0.62,-0.72,0,0.00,0.0
3.306,1758485340.306,0,0,0,0,0.000,19.0272690,-97.9900722,2297.4,7537,30.6,210.6,5.9,-0.27,0.62,-0.74,0,0.00,0.0
3.356,1758485340.356,0,0,0,0,0.000,19.0272690,-97.9900722,2297.4,7537,30.6,210.6,5.9,-0.30,0.65,-0.72,0,0.00,0.0
3.407,1758485340.407,0,0,0,0,0.000,19.0272690,-97.9900722,2297.4,7537,30.6,210.6,5.9,-0.30,0.65,-0.69,0,0.00,0.0
3.457,1758485340.457,0,0,0,0,0.000,19.0272690,-97.9900722,2297.4,7537,30.6,210.6,5.9,-0.30,0.65,-0.69,0,0.00,0.0
3.507,1758485340.507,0,0,0,0,0.000,19.0272690,-97.9900722,2297.4,7537,30.6,210.6,5.9,-0.27,0.64,-0.70,0,0.00,0.0
3.557,1758485340.557,0,0,0,0,0.000,19.0272690,-97.9900722,2297.4,7537,30.6,210.6,5.9,-0.27,0.68,-0.70,0,0.00,0.0
3.607,1758485340.607,0,0,0,0,0.000,19.0272690,-97.9900722,2297.4,7537,30.6,210.6,5.9,-0.27,0.68,-0.72,0,0.00,0.0
3.657,1758485340.657,0,0,0,0,0.000,19.0272690,-97.9900722,2297.4,7537,30.6,210.6,5.9,-0.24,0.68,-0.72,0,0.00,0.0
3.708,1758485340.708,0,0,0,0,0.000,19.0272690,-97.9900722,2297.4,7537,30.6,210.6,5.9,-0.27,0.69,-0.72,0,0.00,0.0
3.758,1758485340.758,0,0,0,0,0.000,19.0272690,-97.9900722,2297.4,7537,30.6,210.6,5.9,-0.30,0.59,-0.73,0,0.00,0.0
3.808,1758485340.808,0,0,0,0,0.000,19.0272690,-97.9900722,2297.4,7537,30.6,210.6,5.9,-0.30,0.61,-0.73,0,0.00,0.0
3.859,1758485340.859,0,0,0,0,0.000,19.0272690,-97.9900722,2297.4,7537,30.6,210.6,5.9,-0.24,0.61,-0.73,0,0.00,0.0
3.909,1758485340.909,0,0,0,0,0.000,19.0272690,-97.9900722,2297.4,7537,30.6,210.6,5.9,-0.24,0.65,-0.73,0,0.00,0.0
3.959,1758485340.959,0,0,0,0,0.000,19.0272690,-97.9900722,2297.4,7537,30.6,210.6,5.9,-0.18,0.65,-0.71,0,0.00,0.0
4.004,1758485341.004,0,0,0,1,0.000,19.0272026,-97.9901156,2297.5,7538,31.2,210.2,5.9,-0.34,0.65,-0.70,0,0.00,0.0
4.059,1758485341.059,0,0,0,0,0.000,19.0272026,-97.9901156,2297.5,7538,31.2,210.2,5.9,-0.32,0.62,-0.70,0,0.00,0.0
4.110,1758485341.110,0,0,0,0,0.000,19.0272026,-97.9901156,2297.5,7538,31.2,210.2,5.9,-0.32,0.62,-0.70,0,0.00,0.0
4.160,1758485341.160,0,0,0,0,0.000,19.0272026,-97.9901156,2297.5,7538,31.2,210.2,5.9,-0.26,0.62,-0.72,0,0.00,0.0
4.210,1758485341.210,0,0,0,0,0.000,19.0272026,-97.9901156,2297.5,7538,31.2,210.2,5.9,-0.26,0.66,-0.72,0,0.00,0.0
4.260,1758485341.260,0,0,0,0,0.000,19.0272026,-97.9901156,2297.5,7538,31.2,210.2,5.9,-0.26,0.66,-0.72,0,0.00,0.0
4.310,1758485341.310,0,0,0,0,0.000,19.0272026,-97.9901156,2297.5,7538,31.2,210.2,5.9,-0.28,0.63,-0.73,0,0.00,0.0
4.361,1758485341.361,0,0,0,0,0.000,19.0272026,-97.9901156,2297.5,7538,31.2,210.2,5.9,-0.28,0.63,-0.75,0,0.00,0.0
4.411,1758485341.411,0,0,0,0,0.000,19.0272026,-97.9901156,2297.5,7538,31.2,210.2,5.9,-0.28,0.63,-0.75,0,0.00,0.0
4.461,1758485341.461,0,0,0,0,0.000,19.0272026,-97.9901156,2297.5,7538,31.2,210.2,5.9,-0.32,0.65,-0.71,0,0.00,0.0
# Lap 0: 00:00:04.004
# Start Point: 19.027203, -97.990116  @ 210.23 deg

4.511,1758485341.511,1,0,0,0,0.000,19.0272026,-97.9901156,2297.5,7538,31.2,210.2,5.9,-0.25,0.65,-0.71,0,0.00,0.0
4.561,1758485341.561,1,0,0,0,0.000,19.0272026,-97.9901156,2297.5,7538,31.2,210.2,5.9,-0.25,0.71,-0.71,0,0.00,0.0
4.612,1758485341.612,1,0,0,0,0.000,19.0272026,-97.9901156,2297.5,7538,31.2,210.2,5.9,-0.25,0.60,-0.69,0,0.00,0.0
4.662,1758485341.662,1,0,0,0,0.000,19.0272026,-97.9901156,2297.5,7538,31.2,210.2,5.9,-0.27,0.65,-0.69,0,0.00,0.0
4.712,1758485341.712,1,0,0,0,0.000,19.0272026,-97.9901156,2297.5,7538,31.2,210.2,5.9,-0.27,0.65,-0.71,0,0.00,0.0
4.762,1758485341.762,1,0,0,0,0.000,19.0272026,-97.9901156,2297.5,7538,31.2,210.2,5.9,-0.30,0.65,-0.73,0,0.00,0.0
4.813,1758485341.813,1,0,0,0,0.000,19.0272026,-97.9901156,2297.5,7538,31.2,210.2,5.9,-0.20,0.65,-0.74,0,0.00,0.0
4.863,1758485341.863,1,0,0,0,0.000,19.0272026,-97.9901156,2297.5,7538,31.2,210.2,5.9,-0.30,0.65,-0.74,0,0.00,0.0
4.913,1758485341.913,1,0,0,0,0.000,19.0272026,-97.9901156,2297.5,7538,31.2,210.2,5.9,-0.30,0.64,-0.74,0,0.00,0.0
4.963,1758485341.963,1,0,0,0,0.000,19.0272026,-97.9901156,2297.5,7538,31.2,210.2,5.9,-0.31,0.64,-0.72,0,0.00,0.0
5.003,1758485342.003,1,0,0,1,0.000,19.0271341,-97.9901616,2297.5,7538,31.8,210.8,6.4,-0.31,0.64,-0.72,0,0.00,0.0
5.054,1758485342.054,1,0,0,0,0.000,19.0271341,-97.9901616,2297.5,7538,31.8,210.8,6.4,-0.22,0.62,-0.74,0,0.00,0.0
5.104,1758485342.104,1,0,0,0,0.000,19.0271341,-97.9901616,2297.5,7538,31.8,210.8,6.4,-0.21,0.66,-0.74,0,0.00,0.0
5.154,1758485342.154,1,0,0,0,0.000,19.0271341,-97.9901616,2297.5,7538,31.8,210.8,6.4,-0.22,0.62,-0.73,0,0.00,0.0
5.204,1758485342.204,1,0,0,0,0.000,19.0271341,-97.9901616,2297.5,7538,31.8,210.8,6.4,-0.24,0.63,-0.69,0,0.00,0.0
5.254,1758485342.254,1,0,0,0,0.000,19.0271341,-97.9901616,2297.5,7538,31.8,210.8,6.4,-0.27,0.63,-0.70,0,0.00,0.0
5.304,1758485342.304,1,0,0,0,0.000,19.0271341,-97.9901616,2297.5,7538,31.8,210.8,6.4,-0.24,0.63,-0.70,0,0.00,0.0
5.355,1758485342.355,1,0,0,0,0.000,19.0271341,-97.9901616,2297.5,7538,31.8,210.8,6.4,-0.30,0.64,-0.72,0,0.00,0.0
5.405,1758485342.405,1,0,0,0,0.000,19.0271341,-97.9901616,2297.5,7538,31.8,210.8,6.4,-0.22,0.58,-0.72,0,0.00,0.0
5.455,1758485342.455,1,0,0,0,0.000,19.0271341,-97.9901616,2297.5,7538,31.8,210.8,6.4,-0.36,0.67,-0.72,0,0.00,0.0
5.505,1758485342.505,1,0,0,0,0.000,19.0271341,-97.9901616,2297.5,7538,31.8,210.8,6.4,-0.24,0.65,-0.72,0,0.00,0.0
5.556,1758485342.556,1,0,0,0,0.000,19.0271341,-97.9901616,2297.5,7538,31.8,210.8,6.4,-0.26,0.67,-0.73,0,0.00,0.0
5.606,1758485342.606,1,0,0,0,0.000,19.0271341,-97.9901616,2297.5,7538,31.8,210.8,6.4,-0.26,0.65,-0.71,0,0.00,0.0
5.656,1758485342.656,1,0,0,0,0.000,19.0271341,-97.9901616,2297.5,7538,31.8,210.8,6.4,-0.26,0.67,-0.71,0,0.00,0.0
5.706,1758485342.706,1,0,0,0,0.000,19.0271341,-97.9901616,2297.5,7538,31.8,210.8,6.4,-0.26,0.63,-0.71,0,0.00,0.0
5.756,1758485342.756,1,0,0,0,0.000,19.0271341,-97.9901616,2297.5,7538,31.8,210.8,6.4,-0.26,0.63,-0.72,0,0.00,0.0
5.807,1758485342.807,1,0,0,0,0.000,19.0271341,-97.9901616,2297.5,7538,31.8,210.8,6.4,-0.23,0.63,-0.72,0,0.00,0.0
5.857,1758485342.857,1,0,0,0,0.000,19.0271341,-97.9901616,2297.5,7538,31.8,210.8,6.4,-0.32,0.62,-0.73,0,0.00,0.0
5.907,1758485342.907,1,0,0,0,0.000,19.0271341,-97.9901616,2297.5,7538,31.8,210.8,6.4,-0.31,0.63,-0.71,0,0.00,0.0
5.957,1758485342.957,1,0,0,0,0.000,19.0271341,-97.9901616,2297.5,7538,31.8,210.8,6.4,-0.31,0.63,-0.73,0,0.00,0.0
6.005,1758485343.005,1,0,0,1,0.000,19.0270614,-97.9902073,2297.7,7538,32.5,210.5,6.2,-0.27,0.63,-0.73,0,0.00,0.0
6.058,1758485343.058,1,0,0,0,0.000,19.0270614,-97.9902073,2297.7,7538,32.5,210.5,6.2,-0.27,0.64,-0.73,0,0.00,0.0
6.108,1758485343.108,1,0,0,0,0.000,19.0270614,-97.9902073,2297.7,7538,32.5,210.5,6.2,-0.27,0.64,-0.73,0,0.00,0.0
6.158,1758485343.158,1,0,0,0,0.000,19.0270614,-97.9902073,2297.7,7538,32.5,210.5,6.2,-0.30,0.64,-0.73,0,0.00,0.0
6.208,1758485343.208,1,0,0,0,0.000,19.0270614,-97.9902073,2297.7,7538,32.5,210.5,6.2,-0.28,0.65,-0.71,0,0.00,0.0
6.259,1758485343.259,1,0,0,0,0.000,19.0270614,-97.9902073,2297.7,7538,32.5,210.5,6.2,-0.30,0.62,-0.71,0,0.00,0.0
6.309,1758485343.309,1,0,0,0,0.000,19.0270614,-97.9902073,2297.7,7538,32.5,210.5,6.2,-0.28,0.62,-0.71,0,0.00,0.0
6.359,1758485343.359,1,0,0,0,0.000,19.0270614,-97.9902073,2297.7,7538,32.5,210.5,6.2,-0.31,0.62,-0.74,0,0.00,0.0
6.409,1758485343.409,1,0,0,0,0.000,19.0270614,-97.9902073,2297.7,7538,32.5,210.5,6.2,-0.27,0.67,-0.71,0,0.00,0.0
6.459,1758485343.459,1,0,0,0,0.000,19.0270614,-97.9902073,2297.7,7538,32.5,210.5,6.2,-0.27,0.67,-0.72,0,0.00,0.0
6.510,1758485343.510,1,0,0,0,0.000,19.0270614,-97.9902073,2297.7,7538,32.5,210.5,6.2,-0.27,0.66,-0.72,0,0.00,0.0
6.560,1758485343.560,1,0,0,0,0.000,19.0270614,-97.9902073,2297.7,7538,32.5,210.5,6.2,-0.25,0.64,-0.72,0,0.00,0.0
6.611,1758485343.611,1,0,0,0,0.000,19.0270614,-97.9902073,2297.7,7538,32.5,210.5,6.2,-0.30,0.66,-0.70,0,0.00,0.0
6.660,1758485343.660,1,0,0,0,0.000,19.0270614,-97.9902073,2297.7,7538,32.5,210.5,6.2,-0.30,0.63,-0.70,0,0.00,0.0
6.711,1758485343.711,1,0,0,0,0.000,19.0270614,-97.9902073,2297.7,7538,32.5,210.5,6.2,-0.30,0.66,-0.74,0,0.00,0.0
6.761,1758485343.761,1,0,0,0,0.000,19.0270614,-97.9902073,2297.7,7538,32.5,210.5,6.2,-0.24,0.64,-0.74,0,0.00,0.0
6.811,1758485343.811,1,0,0,0,0.000,19.0270614,-97.9902073,2297.7,7538,32.5,210.5,6.2,-0.24,0.64,-0.74,0,0.00,0.0
6.861,1758485343.861,1,0,0,0,0.000,19.0270614,-97.9902073,2297.7,7538,32.5,210.5,6.2,-0.24,0.64,-0.72,0,0.00,0.0
6.912,1758485343.912,1,0,0,0,0.000,19.0270614,-97.9902073,2297.7,7538,32.5,210.5,6.2,-0.24,0.66,-0.68,0,0.00,0.0
6.962,1758485343.962,1,0,0,0,0.000,19.0270614,-97.9902073,2297.7,7538,32.5,210.5,6.2,-0.24,0.66,-0.68,0,0.00,0.0
7.012,1758485344.012,1,0,0,0,0.000,19.0270614,-97.9902073,2297.7,7538,32.5,210.5,6.2,-0.26,0.65,-0.75,0,0.00,0.0
7.014,1758485344.014,1,0,0,1,0.000,19.0269906,-97.9902513,2297.8,7539,33.0,210.7,6.3,-0.26,0.65,-0.75,0,0.00,0.0
7.062,1758485344.062,1,0,0,0,0.000,19.0269906,-97.9902513,2297.8,7539,33.0,210.7,6.3,-0.26,0.63,-0.75,0,0.00,0.0
7.112,1758485344.112,1,0,0,0,0.000,19.0269906,-97.9902513,2297.8,7539,33.0,210.7,6.3,-0.26,0.63,-0.73,0,0.00,0.0
7.163,1758485344.163,1,0,0,0,0.000,19.0269906,-97.9902513,2297.8,7539,33.0,210.7,6.3,-0.26,0.63,-0.73,0,0.00,0.0
7.213,1758485344.213,1,0,0,0,0.000,19.0269906,-97.9902513,2297.8,7539,33.0,210.7,6.3,-0.24,0.66,-0.73,0,0.00,0.0
7.263,1758485344.263,1,0,0,0,0.000,19.0269906,-97.9902513,2297.8,7539,33.0,210.7,6.3,-0.36,0.66,-0.77,0,0.00,0.0
7.313,1758485344.313,1,0,0,0,0.000,19.0269906,-97.9902513,2297.8,7539,33.0,210.7,6.3,-0.27,0.65,-0.74,0,0.00,0.0
7.363,1758485344.363,1,0,0,0,0.000,19.0269906,-97.9902513,2297.8,7539,33.0,210.7,6.3,-0.27,0.65,-0.74,0,0.00,0.0
7.414,1758485344.414,1,0,0,0,0.000,19.0269906,-97.9902513,2297.8,7539,33.0,210.7,6.3,-0.27,0.62,-0.74,0,0.00,0.0
7.464,1758485344.464,1,0,0,0,0.000,19.0269906,-97.9902513,2297.8,7539,33.0,210.7,6.3,-0.26,0.63,-0.75,0,0.00,0.0
7.514,1758485344.514,1,0,0,0,0.000,19.0269906,-97.9902513,2297.8,7539,33.0,210.7,6.3,-0.26,0.62,-0.75,0,0.00,0.0
7.564,1758485344.564,1,0,0,0,0.000,19.0269906,-97.9902513,2297.8,7539,33.0,210.7,6.3,-0.26,0.62,-0.76,0,0.00,0.0
7.614,1758485344.614,1,0,0,0,0.000,19.0269906,-97.9902513,2297.8,7539,33.0,210.7,6.3,-0.26,0.62,-0.74,0,0.00,0.0
7.665,1758485344.665,1,0,0,0,0.000,19.0269906,-97.9902513,2297.8,7539,33.0,210.7,6.3,-0.26,0.69,-0.68,0,0.00,0.0
7.715,1758485344.715,1,0,0,0,0.000,19.0269906,-97.9902513,2297.8,7539,33.0,210.7,6.3,-0.26,0.69,-0.68,0,0.00,0.0
7.765,1758485344.765,1,0,0,0,0.000,19.0269906,-97.9902513,2297.8,7539,33.0,210.7,6.3,-0.24,0.64,-0.74,0,0.00,0.0
7.815,1758485344.815,1,0,0,0,0.000,19.0269906,-97.9902513,2297.8,7539,33.0,210.7,6.3,-0.24,0.63,-0.75,0,0.00,0.0
7.865,1758485344.865,1,0,0,0,0.000,19.0269906,-97.9902513,2297.8,7539,33.0,210.7,6.3,-0.24,0.64,-0.74,0,0.00,0.0
7.916,1758485344.916,1,0,0,0,0.000,19.0269906,-97.9902513,2297.8,7539,33.0,210.7,6.3,-0.24,0.62,-0.72,0,0.00,0.0
7.966,1758485344.966,1,0,0,0,0.000,19.0269906,-97.9902513,2297.8,7539,33.0,210.7,6.3,-0.26,0.64,-0.72,0,0.00,0.0
8.013,1758485345.013,1,0,0,1,0.000,19.0269149,-97.9903004,2298.1,7540,34.1,211.0,5.8,-0.26,0.63,-0.72,0,0.00,0.0
8.066,1758485345.066,1,0,0,0,0.000,19.0269149,-97.9903004,2298.1,7540,34.1,211.0,5.8,-0.26,0.68,-0.71,0,0.00,0.0
8.117,1758485345.117,1,0,0,0,0.000,19.0269149,-97.9903004,2298.1,7540,34.1,211.0,5.8,-0.27,0.67,-0.70,0,0.00,0.0
8.167,1758485345.167,1,0,0,0,0.000,19.0269149,-97.9903004,2298.1,7540,34.1,211.0,5.8,-0.27,0.67,-0.69,0,0.00,0.0
8.217,1758485345.217,1,0,0,0,0.000,19.0269149,-97.9903004,2298.1,7540,34.1,211.0,5.8,-0.27,0.63,-0.69,0,0.00,0.0
8.267,1758485345.267,1,0,0,0,0.000,19.0269149,-97.9903004,2298.1,7540,34.1,211.0,5.8,-0.27,0.63,-0.72,0,0.00,0.0
8.318,1758485345.318,1,0,0,0,0.000,19.0269149,-97.9903004,2298.1,7540,34.1,211.0,5.8,-0.24,0.63,-0.72,0,0.00,0.0
8.368,1758485345.368,1,0,0,0,0.000,19.0269149,-97.9903004,2298.1,7540,34.1,211.0,5.8,-0.27,0.65,-0.71,0,0.00,0.0
8.418,1758485345.418,1,0,0,0,0.000,19.0269149,-97.9903004,2298.1,7540,34.1,211.0,5.8,-0.24,0.64,-0.71,0,0.00,0.0
8.468,1758485345.468,1,0,0,0,0.000,19.0269149,-97.9903004,2298.1,7540,34.1,211.0,5.8,-0.30,0.66,-0.71,0,0.00,0.0
8.518,1758485345.518,1,0,0,0,0.000,19.0269149,-97.9903004,2298.1,7540,34.1,211.0,5.8,-0.22,0.64,-0.71,0,0.00,0.0
8.568,1758485345.568,1,0,0,0,0.000,19.0269149,-97.9903004,2298.1,7540,34.1,211.0,5.8,-0.29,0.66,-0.71,0,0.00,0.0
8.619,1758485345.619,1,0,0,0,0.000,19.0269149,-97.9903004,2298.1,7540,34.1,211.0,5.8,-0.25,0.62,-0.68,0,0.00,0.0
8.669,1758485345.669,1,0,0,0,0.000,19.0269149,-97.9903004,2298.1,7540,34.1,211.0,5.8,-0.25,0.66,-0.73,0,0.00,0.0
8.719,1758485345.719,1,0,0,0,0.000,19.0269149,-97.9903004,2298.1,7540,34.1,211.0,5.8,-0.25,0.63,-0.68,0,0.00,0.0
8.769,1758485345.769,1,0,0,0,0.000,19.0269149,-97.9903004,2298.1,7540,34.1,211.0,5.8,-0.23,0.66,-0.68,0,0.00,0.0
8.819,1758485345.819,1,0,0,0,0.000,19.0269149,-97.9903004,2298.1,7540,34.1,211.0,5.8,-0.28,0.66,-0.68,0,0.00,0.0
8.870,1758485345.870,1,0,0,0,0.000,19.0269149,-97.9903004,2298.1,7540,34.1,211.0,5.8,-0.22,0.66,-0.71,0,0.00,0.0
8.920,1758485345.920,1,0,0,0,0.000,19.0269149,-97.9903004,2298.1,7540,34.1,211.0,5.8,-0.31,0.66,-0.71,0,0.00,0.0
8.970,1758485345.970,1,0,0,0,0.000,19.0269149,-97.9903004,2298.1,7540,34.1,211.0,5.8,-0.21,0.57,-0.71,0,0.00,0.0
9.012,1758485346.012,1,0,0,1,0.000,19.0268363,-97.9903490,2298.1,7540,35.0,211.0,5.3,-0.36,0.68,-0.68,0,0.00,0.0
9.061,1758485346.061,1,0,0,0,0.000,19.0268363,-97.9903490,2298.1,7540,35.0,211.0,5.3,-0.19,0.64,-0.66,0,0.00,0.0
9.111,1758485346.111,1,0,0,0,0.000,19.0268363,-97.9903490,2298.1,7540,35.0,211.0,5.3,-0.26,0.64,-0.68,0,0.00,0.0
9.161,1758485346.161,1,0,0,0,0.000,19.0268363,-97.9903490,2298.1,7540,35.0,211.0,5.3,-0.26,0.64,-0.70,0,0.00,0.0
9.211,1758485346.211,1,0,0,0,0.000,19.0268363,-97.9903490,2298.1,7540,35.0,211.0,5.3,-0.29,0.64,-0.70,0,0.00,0.0
9.261,1758485346.261,1,0,0,0,0.000,19.0268363,-97.9903490,2298.1,7540,35.0,211.0,5.3,-0.29,0.61,-0.68,0,0.00,0.0
9.312,1758485346.312,1,0,0,0,0.000,19.0268363,-97.9903490,2298.1,7540,35.0,211.0,5.3,-0.29,0.69,-0.67,0,0.00,0.0
9.362,1758485346.362,1,0,0,0,0.000,19.0268363,-97.9903490,2298.1,7540,35.0,211.0,5.3,-0.29,0.68,-0.67,0,0.00,0.0
9.412,1758485346.412,1,0,0,0,0.000,19.0268363,-97.9903490,2298.1,7540,35.0,211.0,5.3,-0.29,0.68,-0.66,0,0.00,0.0
9.463,1758485346.463,1,0,0,0,0.000,19.0268363,-97.9903490,2298.1,7540,35.0,211.0,5.3,-0.33,0.64,-0.66,0,0.00,0.0
9.512,1758485346.512,1,0,0,0,0.000,19.0268363,-97.9903490,2298.1,7540,35.0,211.0,5.3,-0.24,0.61,-0.66,0,0.00,0.0
9.563,1758485346.563,1,0,0,0,0.000,19.0268363,-97.9903490,2298.1,7540,35.0,211.0,5.3,-0.27,0.64,-0.65,0,0.00,0.0
9.613,1758485346.613,1,0,0,0,0.000,19.0268363,-97.9903490,2298.1,7540,35.0,211.0,5.3,-0.24,0.63,-0.65,0,0.00,0.0
9.663,1758485346.663,1,0,0,0,0.000,19.0268363,-97.9903490,2298.1,7540,35.0,211.0,5.3,-0.27,0.67,-0.65,0,0.00,0.0
9.713,1758485346.713,1,0,0,0,0.000,19.0268363,-97.9903490,2298.1,7540,35.0,211.0,5.3,-0.15,0.63,-0.62,0,0.00,0.0
9.763,1758485346.763,1,0,0,0,0.000,19.0268363,-97.9903490,2298.1,7540,35.0,211.0,5.3,-0.33,0.67,-0.62,0,0.00,0.0
9.814,1758485346.814,1,0,0,0,0.000,19.0268363,-97.9903490,2298.1,7540,35.0,211.0,5.3,-0.20,0.65,-0.62,0,0.00,0.0
9.864,1758485346.864,1,0,0,0,0.000,19.0268363,-97.9903490,2298.1,7540,35.0,211.0,5.3,-0.33,0.65,-0.62,0,0.00,0.0
9.914,1758485346.914,1,0,0,0,0.000,19.0268363,-97.9903490,2298.1,7540,35.0,211.0,5.3,-0.20,0.65,-0.66,0,0.00,0.0
9.964,1758485346.964,1,0,0,0,0.000,19.0268363,-97.9903490,2298.1,7540,35.0,211.0,5.3,-0.19,0.65,-0.68,0,0.00,0.0
10.009,1758485347.009,1,0,0,1,0.000,19.0267581,-97.9903983,2298.2,7540,35.7,210.4,5.5,-0.19,0.65,-0.68,0,0.00,0.0
10.065,1758485347.065,1,0,0,0,0.000,19.0267581,-97.9903983,2298.2,7540,35.7,210.4,5.5,-0.14,0.53,-0.66,0,0.00,0.0
10.115,1758485347.115,1,0,0,0,0.000,19.0267581,-97.9903983,2298.2,7540,35.7,210.4,5.5,-0.21,0.76,-0.63,0,0.00,0.0
10.165,1758485347.165,1,0,0,0,0.000,19.0267581,-97.9903983,2298.2,7540,35.7,210.4,5.5,-0.21,0.73,-0.66,0,0.00,0.0
10.216,1758485347.216,1,0,0,0,0.000,19.0267581,-97.9903983,2298.2,7540,35.7,210.4,5.5,-0.21,0.73,-0.66,0,0.00,0.0
10.266,1758485347.266,1,0,0,0,0.000,19.0267581,-97.9903983,2298.2,7540,35.7,210.4,5.5,-0.17,0.68,-0.66,0,0.00,0.0
10.316,1758485347.316,1,0,0,0,0.000,19.0267581,-97.9903983,2298.2,7540,35.7,210.4,5.5,-0.17,0.61,-0.67,0,0.00,0.0
10.366,1758485347.366,1,0,0,0,0.000,19.0267581,-97.9903983,2298.2,7540,35.7,210.4,5.5,-0.28,0.67,-0.67,0,0.00,0.0
10.416,1758485347.416,1,0,0,0,0.000,19.0267581,-97.9903983,2298.2,7540,35.7,210.4,5.5,-0.28,0.61,-0.67,0,0.00,0.0
10.466,1758485347.466,1,0,0,0,0.000,19.0267581,-97.9903983,2298.2,7540,35.7,210.4,5.5,-0.34,0.67,-0.70,0,0.00,0.0
10.517,1758485347.517,1,0,0,0,0.000,19.0267581,-97.9903983,2298.2,7540,35.7,210.4,5.5,-0.12,0.61,-0.70,0,0.00,0.0
10.567,1758485347.567,1,0,0,0,0.000,19.0267581,-97.9903983,2298.2,7540,35.7,210.4,5.5,-0.13,0.70,-0.70,0,0.00,0.0
10.617,1758485347.617,1,0,0,0,0.000,19.0267581,-97.9903983,2298.2,7540,35.7,210.4,5.5,-0.13,0.68,-0.70,0,0.00,0.0
10.667,1758485347.667,1,0,0,0,0.000,19.0267581,-97.9903983,2298.2,7540,35.7,210.4,5.5,-0.13,0.68,-0.65,0,0.00,0.0
10.718,1758485347.718,1,0,0,0,0.000,19.0267581,-97.9903983,2298.2,7540,35.7,210.4,5.5,-0.13,0.64,-0.63,0,0.00,0.0
10.768,1758485347.768,1,0,0,0,0.000,19.0267581,-97.9903983,2298.2,7540,35.7,210.4,5.5,-0.13,0.64,-0.63,0,0.00,0.0
10.818,1758485347.818,1,0,0,0,0.000,19.0267581,-97.9903983,2298.2,7540,35.7,210.4,5.5,-0.07,0.64,-0.63,0,0.00,0.0
10.868,1758485347.868,1,0,0,0,0.000,19.0267581,-97.9903983,2298.2,7540,35.7,210.4,5.5,-0.35,0.70,-0.71,0,0.00,0.0
10.918,1758485347.918,1,0,0,0,0.000,19.0267581,-97.9903983,2298.2,7540,35.7,210.4,5.5,-0.26,0.58,-0.68,0,0.00,0.0
10.969,1758485347.969,1,0,0,0,0.000,19.0267581,-97.9903983,2298.2,7540,35.7,210.4,5.5,-0.26,0.70,-0.68,0,0.00,0.0
11.014,1758485348.014,1,0,0,1,0.000,19.0266845,-97.9904440,2298.3,7540,34.8,211.0,5.5,-0.26,0.68,-0.68,0,0.00,0.0
11.069,1758485348.069,1,0,0,0,0.000,19.0266845,-97.9904440,2298.3,7540,34.8,211.0,5.5,-0.28,0.68,-0.66,0,0.00,0.0
11.119,1758485348.119,1,0,0,0,0.000,19.0266845,-97.9904440,2298.3,7540,34.8,211.0,5.5,-0.28,0.67,-0.66,0,0.00,0.0
11.170,1758485348.170,1,0,0,0,0.000,19.0266845,-97.9904440,2298.3,7540,34.8,211.0,5.5,-0.28,0.66,-0.66,0,0.00,0.0
11.220,1758485348.220,1,0,0,0,0.000,19.0266845,-97.9904440,2298.3,7540,34.8,211.0,5.5,-0.24,0.66,-0.69,0,0.00,0.0
11.270,1758485348.270,1,0,0,0,0.000,19.0266845,-97.9904440,2298.3,7540,34.8,211.0,5.5,-0.24,0.66,-0.69,0,0.00,0.0
11.320,1758485348.320,1,0,0,0,0.000,19.0266845,-97.9904440,2298.3,7540,34.8,211.0,5.5,-0.24,0.66,-0.69,0,0.00,0.0
11.370,1758485348.370,1,0,0,0,0.000,19.0266845,-97.9904440,2298.3,7540,34.8,211.0,5.5,-0.26,0.67,-0.66,0,0.00,0.0
11.420,1758485348.420,1,0,0,0,0.000,19.0266845,-97.9904440,2298.3,7540,34.8,211.0,5.5,-0.26,0.66,-0.71,0,0.00,0.0
11.471,1758485348.471,1,0,0,0,0.000,19.0266845,-97.9904440,2298.3,7540,34.8,211.0,5.5,-0.26,0.65,-0.72,0,0.00,0.0
11.521,1758485348.521,1,0,0,0,0.000,19.0266845,-97.9904440,2298.3,7540,34.8,211.0,5.5,-0.15,0.65,-0.72,0,0.00,0.0
11.571,1758485348.571,1,0,0,0,0.000,19.0266845,-97.9904440,2298.3,7540,34.8,211.0,5.5,-0.29,0.65,-0.70,0,0.00,0.0
11.621,1758485348.621,1,0,0,0,0.000,19.0266845,-97.9904440,2298.3,7540,34.8,211.0,5.5,-0.29,0.61,-0.70,0,0.00,0.0
11.672,1758485348.672,1,0,0,0,0.000,19.0266845,-97.9904440,2298.3,7540,34.8,211.0,5.5,-0.29,0.65,-0.70,0,0.00,0.0
11.722,1758485348.722,1,0,0,0,0.000,19.0266845,-97.9904440,2298.3,7540,34.8,211.0,5.5,-0.27,0.65,-0.70,0,0.00,0.0
11.772,1758485348.772,1,0,0,0,0.000,19.0266845,-97.9904440,2298.3,7540,34.8,211.0,5.5,-0.27,0.65,-0.71,0,0.00,0.0
11.822,1758485348.822,1,0,0,0,0.000,19.0266845,-97.9904440,2298.3,7540,34.8,211.0,5.5,-0.27,0.65,-0.71,0,0.00,0.0
11.872,1758485348.872,1,0,0,0,0.000,19.0266845,-97.9904440,2298.3,7540,34.8,211.0,5.5,-0.29,0.64,-0.71,0,0.00,0.0
11.922,1758485348.922,1,0,0,0,0.000,19.0266845,-97.9904440,2298.3,7540,34.8,211.0,5.5,-0.23,0.64,-0.72,0,0.00,0.0
11.973,1758485348.973,1,0,0,0,0.000,19.0266845,-97.9904440,2298.3,7540,34.8,211.0,5.5,-0.23,0.64,-0.72,0,0.00,0.0
12.011,1758485349.011,1,0,0,1,0.000,19.0266153,-97.9904880,2298.2,7540,32.7,211.3,5.7,-0.23,0.64,-0.72,0,0.00,0.0
12.063,1758485349.063,1,0,0,0,0.000,19.0266153,-97.9904880,2298.2,7540,32.7,211.3,5.7,-0.20,0.64,-0.69,0,0.00,0.0
12.113,1758485349.113,1,0,0,0,0.000,19.0266153,-97.9904880,2298.2,7540,32.7,211.3,5.7,-0.27,0.64,-0.72,0,0.00,0.0
12.164,1758485349.164,1,0,0,0,0.000,19.0266153,-97.9904880,2298.2,7540,32.7,211.3,5.7,-0.27,0.64,-0.72,0,0.00,0.0
12.214,1758485349.214,1,0,0,0,0.000,19.0266153,-97.9904880,2298.2,7540,32.7,211.3,5.7,-0.27,0.61,-0.73,0,0.00,0.0
12.264,1758485349.264,1,0,0,0,0.000,19.0266153,-97.9904880,2298.2,7540,32.7,211.3,5.7,-0.32,0.61,-0.77,0,0.00,0.0
12.314,1758485349.314,1,0,0,0,0.000,19.0266153,-97.9904880,2298.2,7540,32.7,211.3,5.7,-0.32,0.59,-0.79,0,0.00,0.0
12.365,1758485349.365,1,0,0,0,0.000,19.0266153,-97.9904880,2298.2,7540,32.7,211.3,5.7,-0.32,0.67,-0.79,0,0.00,0.0
12.415,1758485349.415,1,0,0,0,0.000,19.0266153,-97.9904880,2298.2,7540,32.7,211.3,5.7,-0.33,0.67,-0.77,0,0.00,0.0
12.465,1758485349.465,1,0,0,0,0.000,19.0266153,-97.9904880,2298.2,7540,32.7,211.3,5.7,-0.34,0.67,-0.77,0,0.00,0.0
12.515,1758485349.515,1,0,0,0,0.000,19.0266153,-97.9904880,2298.2,7540,32.7,211.3,5.7,-0.34,0.64,-0.78,0,0.00,0.0
12.565,1758485349.565,1,0,0,0,0.000,19.0266153,-97.9904880,2298.2,7540,32.7,211.3,5.7,-0.25,0.61,-0.78,0,0.00,0.0
12.615,1758485349.615,1,0,0,0,0.000,19.0266153,-97.9904880,2298.2,7540,32.7,211.3,5.7,-0.25,0.64,-0.78,0,0.00,0.0
12.666,1758485349.666,1,0,0,0,0.000,19.0266153,-97.9904880,2298.2,7540,32.7,211.3,5.7,-0.28,0.65,-0.77,0,0.00,0.0
12.716,1758485349.716,1,0,0,0,0.000,19.0266153,-97.9904880,2298.2,7540,32.7,211.3,5.7,-0.28,0.65,-0.74,0,0.00,0.0
12.766,1758485349.766,1,0,0,0,0.000,19.0266153,-97.9904880,2298.2,7540,32.7,211.3,5.7,-0.28,0.64,-0.74,0,0.00,0.0
12.816,1758485349.816,1,0,0,0,0.000,19.0266153,-97.9904880,2298.2,7540,32.7,211.3,5.7,-0.27,0.63,-0.79,0,0.00,0.0
12.867,1758485349.867,1,0,0,0,0.000,19.0266153,-97.9904880,2298.2,7540,32.7,211.3,5.7,-0.35,0.63,-0.79,0,0.00,0.0
12.917,1758485349.917,1,0,0,0,0.000,19.0266153,-97.9904880,2298.2,7540,32.7,211.3,5.7,-0.30,0.59,-0.77,0,0.00,0.0
12.967,1758485349.967,1,0,0,0,0.000,19.0266153,-97.9904880,2298.2,7540,32.7,211.3,5.7,-0.30,0.68,-0.77,0,0.00,0.0
13.015,1758485350.015,1,0,0,1,0.000,19.0265496,-97.9905285,2298.1,7540,31.2,211.0,6.0,-0.29,0.64,-0.77,0,0.00,0.0
13.067,1758485350.067,1,0,0,0,0.000,19.0265496,-97.9905285,2298.1,7540,31.2,211.0,6.0,-0.29,0.68,-0.78,0,0.00,0.0
13.117,1758485350.117,1,0,0,0,0.000,19.0265496,-97.9905285,2298.1,7540,31.2,211.0,6.0,-0.27,0.64,-0.81,0,0.00,0.0
13.168,1758485350.168,1,0,0,0,0.000,19.0265496,-97.9905285,2298.1,7540,31.2,211.0,6.0,-0.35,0.60,-0.81,0,0.00,0.0
13.218,1758485350.218,1,0,0,0,0.000,19.0265496,-97.9905285,2298.1,7540,31.2,211.0,6.0,-0.30,0.60,-0.80,0,0.00,0.0
13.268,1758485350.268,1,0,0,0,0.000,19.0265496,-97.9905285,2298.1,7540,31.2,211.0,6.0,-0.35,0.64,-0.80,0,0.00,0.0
13.319,1758485350.319,1,0,0,0,0.000,19.0265496,-97.9905285,2298.1,7540,31.2,211.0,6.0,-0.31,0.64,-0.81,0,0.00,0.0
13.369,1758485350.369,1,0,0,0,0.000,19.0265496,-97.9905285,2298.1,7540,31.2,211.0,6.0,-0.31,0.63,-0.84,0,0.00,0.0
13.419,1758485350.419,1,0,0,0,0.000,19.0265496,-97.9905285,2298.1,7540,31.2,211.0,6.0,-0.31,0.61,-0.85,0,0.00,0.0
13.469,1758485350.469,1,0,0,0,0.000,19.0265496,-97.9905285,2298.1,7540,31.2,211.0,6.0,-0.31,0.61,-0.85,0,0.00,0.0
13.519,1758485350.519,1,0,0,0,0.000,19.0265496,-97.9905285,2298.1,7540,31.2,211.0,6.0,-0.40,0.61,-0.87,0,0.00,0.0
13.569,1758485350.569,1,0,0,0,0.000,19.0265496,-97.9905285,2298.1,7540,31.2,211.0,6.0,-0.36,0.60,-0.87,0,0.00,0.0
13.620,1758485350.620,1,0,0,0,0.000,19.0265496,-97.9905285,2298.1,7540,31.2,211.0,6.0,-0.38,0.66,-0.87,0,0.00,0.0
13.670,1758485350.670,1,0,0,0,0.000,19.0265496,-97.9905285,2298.1,7540,31.2,211.0,6.0,-0.36,0.62,-0.84,0,0.00,0.0
13.720,1758485350.720,1,0,0,0,0.000,19.0265496,-97.9905285,2298.1,7540,31.2,211.0,6.0,-0.38,0.62,-0.84,0,0.00,0.0
13.770,1758485350.770,1,0,0,0,0.000,19.0265496,-97.9905285,2298.1,7540,31.2,211.0,6.0,-0.40,0.62,-0.84,0,0.00,0.0
13.821,1758485350.821,1,0,0,0,0.000,19.0265496,-97.9905285,2298.1,7540,31.2,211.0,6.0,-0.40,0.59,-0.82,0,0.00,0.0
13.871,1758485350.871,1,0,0,0,0.000,19.0265496,-97.9905285,2298.1,7540,31.2,211.0,6.0,-0.32,0.61,-0.82,0,0.00,0.0
13.921,1758485350.921,1,0,0,0,0.000,19.0265496,-97.9905285,2298.1,7540,31.2,211.0,6.0,-0.32,0.61,-0.86,0,0.00,0.0
13.971,1758485350.971,1,0,0,0,0.000,19.0265496,-97.9905285,2298.1,7540,31.2,211.0,6.0,-0.32,0.61,-0.86,0,0.00,0.0
14.011,1758485351.011,1,0,0,1,0.000,19.0264818,-97.9905697,2298.1,7540,31.7,210.7,6.0,-0.52,0.66,-0.86,0,0.00,0.0
14.062,1758485351.062,1,0,0,0,0.000,19.0264818,-97.9905697,2298.1,7540,31.7,210.7,6.0,-0.28,0.62,-0.84,0,0.00,0.0
14.112,1758485351.112,1,0,0,0,0.000,19.0264818,-97.9905697,2298.1,7540,31.7,210.7,6.0,-0.43,0.69,-0.91,0,0.00,0.0
14.162,1758485351.162,1,0,0,0,0.000,19.0264818,-97.9905697,2298.1,7540,31.7,210.7,6.0,-0.43,0.62,-0.90,0,0.00,0.0
14.212,1758485351.212,1,0,0,0,0.000,19.0264818,-97.9905697,2298.1,7540,31.7,210.7,6.0,-0.43,0.57,-0.90,0,0.00,0.0
14.262,1758485351.262,1,0,0,0,0.000,19.0264818,-97.9905697,2298.1,7540,31.7,210.7,6.0,-0.46,0.57,-0.90,0,0.00,0.0
14.313,1758485351.313,1,0,0,0,0.000,19.0264818,-97.9905697,2298.1,7540,31.7,210.7,6.0,-0.33,0.56,-0.89,0,0.00,0.0
14.363,1758485351.363,1,0,0,0,0.000,19.0264818,-97.9905697,2298.1,7540,31.7,210.7,6.0,-0.38,0.71,-0.89,0,0.00,0.0
14.413,1758485351.413,1,0,0,0,0.000,19.0264818,-97.9905697,2298.1,7540,31.7,210.7,6.0,-0.38,0.59,-0.89,0,0.00,0.0
14.463,1758485351.463,1,0,0,0,0.000,19.0264818,-97.9905697,2298.1,7540,31.7,210.7,6.0,-0.38,0.59,-0.89,0,0.00,0.0
14.514,1758485351.514,1,0,0,0,0.000,19.0264818,-97.9905697,2298.1,7540,31.7,210.7,6.0,-0.38,0.59,-0.89,0,0.00,0.0
14.564,1758485351.564,1,0,0,0,0.000,19.0264818,-97.9905697,2298.1,7540,31.7,210.7,6.0,-0.38,0.63,-0.85,0,0.00,0.0
14.614,1758485351.614,1,0,0,0,0.000,19.0264818,-97.9905697,2298.1,7540,31.7,210.7,6.0,-0.38,0.63,-0.85,0,0.00,0.0
14.664,1758485351.664,1,0,0,0,0.000,19.0264818,-97.9905697,2298.1,7540,31.7,210.7,6.0,-0.37,0.63,-0.87,0,0.00,0.0
14.714,1758485351.714,1,0,0,0,0.000,19.0264818,-97.9905697,2298.1,7540,31.7,210.7,6.0,-0.45,0.64,-0.88,0,0.00,0.0
14.765,1758485351.765,1,0,0,0,0.000,19.0264818,-97.9905697,2298.1,7540,31.7,210.7,6.0,-0.42,0.59,-0.88,0,0.00,0.0
14.815,1758485351.815,1,0,0,0,0.000,19.0264818,-97.9905697,2298.1,7540,31.7,210.7,6.0,-0.42,0.64,-0.87,0,0.00,0.0
14.865,1758485351.865,1,0,0,0,0.000,19.0264818,-97.9905697,2298.1,7540,31.7,210.7,6.0,-0.40,0.62,-0.87,0,0.00,0.0
14.915,1758485351.915,1,0,0,0,0.000,19.0264818,-97.9905697,2298.1,7540,31.7,210.7,6.0,-0.38,0.62,-0.87,0,0.00,0.0
14.966,1758485351.966,1,0,0,0,0.000,19.0264818,-97.9905697,2298.1,7540,31.7,210.7,6.0,-0.40,0.62,-0.86,0,0.00,0.0
15.015,1758485352.015,1,0,0,1,0.000,19.0263989,-97.9906189,2298.4,7541,35.6,211.0,6.5,-0.38,0.61,-0.86,0,0.00,0.0
15.066,1758485352.066,1,0,0,0,0.000,19.0263989,-97.9906189,2298.4,7541,35.6,211.0,6.5,-0.35,0.61,-0.88,0,0.00,0.0
15.116,1758485352.116,1,0,0,0,0.000,19.0263989,-97.9906189,2298.4,7541,35.6,211.0,6.5,-0.32,0.61,-0.92,0,0.00,0.0
15.166,1758485352.166,1,0,0,0,0.000,19.0263989,-97.9906189,2298.4,7541,35.6,211.0,6.5,-0.32,0.61,-0.92,0,0.00,0.0
15.216,1758485352.216,1,0,0,0,0.000,19.0263989,-97.9906189,2298.4,7541,35.6,211.0,6.5,-0.32,0.60,-0.87,0,0.00,0.0
15.267,1758485352.267,1,0,0,0,0.000,19.0263989,-97.9906189,2298.4,7541,35.6,211.0,6.5,-0.48,0.60,-0.87,0,0.00,0.0
15.317,1758485352.317,1,0,0,0,0.000,19.0263989,-97.9906189,2298.4,7541,35.6,211.0,6.5,-0.27,0.60,-0.86,0,0.00,0.0
15.367,1758485352.367,1,0,0,0,0.000,19.0263989,-97.9906189,2298.4,7541,35.6,211.0,6.5,-0.48,0.65,-0.86,0,0.00,0.0
15.417,1758485352.417,1,0,0,0,0.000,19.0263989,-97.9906189,2298.4,7541,35.6,211.0,6.5,-0.27,0.60,-0.83,0,0.00,0.0
15.468,1758485352.468,1,0,0,0,0.000,19.0263989,-97.9906189,2298.4,7541,35.6,211.0,6.5,-0.48,0.63,-0.83,0,0.00,0.0
15.518,1758485352.518,1,0,0,0,0.000,19.0263989,-97.9906189,2298.4,7541,35.6,211.0,6.5,-0.44,0.60,-0.85,0,0.00,0.0
15.568,1758485352.568,1,0,0,0,0.000,19.0263989,-97.9906189,2298.4,7541,35.6,211.0,6.5,-0.48,0.63,-0.89,0,0.00,0.0
15.618,1758485352.618,1,0,0,0,0.000,19.0263989,-97.9906189,2298.4,7541,35.6,211.0,6.5,-0.44,0.60,-0.89,0,0.00,0.0
15.668,1758485352.668,1,0,0,0,0.000,19.0263989,-97.9906189,2298.4,7541,35.6,211.0,6.5,-0.39,0.66,-0.89,0,0.00,0.0
15.719,1758485352.719,1,0,0,0,0.000,19.0263989,-97.9906189,2298.4,7541,35.6,211.0,6.5,-0.39,0.56,-0.89,0,0.00,0.0
15.769,1758485352.769,1,0,0,0,0.000,19.0263989,-97.9906189,2298.4,7541,35.6,211.0,6.5,-0.39,0.68,-0.83,0,0.00,0.0
15.819,1758485352.819,1,0,0,0,0.000,19.0263989,-97.9906189,2298.4,7541,35.6,211.0,6.5,-0.54,0.62,-0.89,0,0.00,0.0
15.869,1758485352.869,1,0,0,0,0.000,19.0263989,-97.9906189,2298.4,7541,35.6,211.0,6.5,-0.21,0.64,-0.83,0,0.00,0.0
15.920,1758485352.920,1,0,0,0,0.000,19.0263989,-97.9906189,2298.4,7541,35.6,211.0,6.5,-0.59,0.64,-0.93,0,0.00,0.0
15.970,1758485352.970,1,0,0,0,0.000,19.0263989,-97.9906189,2298.4,7541,35.6,211.0,6.5,-0.23,0.64,-0.82,0,0.00,0.0
16.005,1758485353.005,1,0,0,1,0.000,19.0262895,-97.9906853,2298.4,7541,43.2,211.8,6.6,-0.68,0.83,-0.96,0,0.00,0.0
16.060,1758485353.060,1,0,0,0,0.000,19.0262895,-97.9906853,2298.4,7541,43.2,211.8,6.6,-0.29,0.49,-0.90,0,0.00,0.0
16.110,1758485353.110,1,0,0,0,0.000,19.0262895,-97.9906853,2298.4,7541,43.2,211.8,6.6,-0.40,0.69,-0.93,0,0.00,0.0
16.160,1758485353.160,1,0,0,0,0.000,19.0262895,-97.9906853,2298.4,7541,43.2,211.8,6.6,-0.40,0.52,-0.93,0,0.00,0.0
16.211,1758485353.211,1,0,0,0,0.000,19.0262895,-97.9906853,2298.4,7541,43.2,211.8,6.6,-0.40,0.54,-0.93,0,0.00,0.0
16.261,1758485353.261,1,0,0,0,0.000,19.0262895,-97.9906853,2298.4,7541,43.2,211.8,6.6,-0.39,0.54,-0.85,0,0.00,0.0
16.311,1758485353.311,1,0,0,0,0.000,19.0262895,-97.9906853,2298.4,7541,43.2,211.8,6.6,-0.26,0.59,-0.85,0,0.00,0.0
16.361,1758485353.361,1,0,0,0,0.000,19.0262895,-97.9906853,2298.4,7541,43.2,211.8,6.6,-0.36,0.59,-0.85,0,0.00,0.0
16.411,1758485353.411,1,0,0,0,0.000,19.0262895,-97.9906853,2298.4,7541,43.2,211.8,6.6,-0.36,0.59,-0.86,0,0.00,0.0
16.462,1758485353.462,1,0,0,0,0.000,19.0262895,-97.9906853,2298.4,7541,43.2,211.8,6.6,-0.44,0.65,-0.86,0,0.00,0.0
16.512,1758485353.512,1,0,0,0,0.000,19.0262895,-97.9906853,2298.4,7541,43.2,211.8,6.6,-0.44,0.64,-0.92,0,0.00,0.0
16.562,1758485353.562,1,0,0,0,0.000,19.0262895,-97.9906853,2298.4,7541,43.2,211.8,6.6,-0.46,0.65,-0.92,0,0.00,0.0
16.612,1758485353.612,1,0,0,0,0.000,19.0262895,-97.9906853,2298.4,7541,43.2,211.8,6.6,-0.46,0.64,-0.91,0,0.00,0.0
16.663,1758485353.663,1,0,0,0,0.000,19.0262895,-97.9906853,2298.4,7541,43.2,211.8,6.6,-0.46,0.63,-0.91,0,0.00,0.0
16.713,1758485353.713,1,0,0,0,0.000,19.0262895,-97.9906853,2298.4,7541,43.2,211.8,6.6,-0.46,0.63,-0.91,0,0.00,0.0
16.763,1758485353.763,1,0,0,0,0.000,19.0262895,-97.9906853,2298.4,7541,43.2,211.8,6.6,-0.40,0.63,-0.88,0,0.00,0.0
16.813,1758485353.813,1,0,0,0,0.000,19.0262895,-97.9906853,2298.4,7541,43.2,211.8,6.6,-0.40,0.63,-0.88,0,0.00,0.0
16.863,1758485353.863,1,0,0,0,0.000,19.0262895,-97.9906853,2298.4,7541,43.2,211.8,6.6,-0.39,0.63,-0.89,0,0.00,0.0
16.913,1758485353.913,1,0,0,0,0.000,19.0262895,-97.9906853,2298.4,7541,43.2,211.8,6.6,-0.38,0.64,-0.89,0,0.00,0.0
16.964,1758485353.964,1,0,0,0,0.000,19.0262895,-97.9906853,2298.4,7541,43.2,211.8,6.6,-0.39,0.65,-0.89,0,0.00,0.0
17.004,1758485354.004,1,0,0,1,0.000,19.0261666,-97.9907712,2298.4,7541,51.9,213.1,5.5,-0.38,0.65,-0.87,0,0.00,0.0
17.054,1758485354.054,1,0,0,0,0.000,19.0261666,-97.9907712,2298.4,7541,51.9,213.1,5.5,-0.42,0.65,-0.96,0,0.00,0.0
17.104,1758485354.104,1,0,0,0,0.000,19.0261666,-97.9907712,2298.4,7541,51.9,213.1,5.5,-0.22,0.51,-0.87,0,0.00,0.0
17.155,1758485354.155,1,0,0,0,0.000,19.0261666,-97.9907712,2298.4,7541,51.9,213.1,5.5,-0.39,0.56,-0.96,0,0.00,0.0
17.205,1758485354.205,1,0,0,0,0.000,19.0261666,-97.9907712,2298.4,7541,51.9,213.1,5.5,-0.39,0.56,-0.89,0,0.00,0.0
17.255,1758485354.255,1,0,0,0,0.000,19.0261666,-97.9907712,2298.4,7541,51.9,213.1,5.5,-0.39,0.56,-0.89,0,0.00,0.0
17.305,1758485354.305,1,0,0,0,0.000,19.0261666,-97.9907712,2298.4,7541,51.9,213.1,5.5,-0.34,0.64,-0.89,0,0.00,0.0
17.355,1758485354.355,1,0,0,0,0.000,19.0261666,-97.9907712,2298.4,7541,51.9,213.1,5.5,-0.34,0.64,-0.91,0,0.00,0.0
17.406,1758485354.406,1,0,0,0,0.000,19.0261666,-97.9907712,2298.4,7541,51.9,213.1,5.5,-0.38,0.64,-0.91,0,0.00,0.0
17.456,1758485354.456,1,0,0,0,0.000,19.0261666,-97.9907712,2298.4,7541,51.9,213.1,5.5,-0.38,0.59,-0.91,0,0.00,0.0
17.506,1758485354.506,1,0,0,0,0.000,19.0261666,-97.9907712,2298.4,7541,51.9,213.1,5.5,-0.38,0.59,-0.91,0,0.00,0.0
17.556,1758485354.556,1,0,0,0,0.000,19.0261666,-97.9907712,2298.4,7541,51.9,213.1,5.5,-0.34,0.59,-0.91,0,0.00,0.0
17.606,1758485354.606,1,0,0,0,0.000,19.0261666,-97.9907712,2298.4,7541,51.9,213.1,5.5,-0.34,0.59,-0.82,0,0.00,0.0
17.657,1758485354.657,1,0,0,0,0.000,19.0261666,-97.9907712,2298.4,7541,51.9,213.1,5.5,-0.34,0.59,-0.82,0,0.00,0.0
17.707,1758485354.707,1,0,0,0,0.000,19.0261666,-97.9907712,2298.4,7541,51.9,213.1,5.5,-0.27,0.58,-0.89,0,0.00,0.0
17.757,1758485354.757,1,0,0,0,0.000,19.0261666,-97.9907712,2298.4,7541,51.9,213.1,5.5,-0.44,0.69,-0.89,0,0.00,0.0
17.808,1758485354.808,1,0,0,0,0.000,19.0261666,-97.9907712,2298.4,7541,51.9,213.1,5.5,-0.41,0.56,-0.89,0,0.00,0.0
17.858,1758485354.858,1,0,0,0,0.000,19.0261666,-97.9907712,2298.4,7541,51.9,213.1,5.5,-0.41,0.63,-0.88,0,0.00,0.0
17.908,1758485354.908,1,0,0,0,0.000,19.0261666,-97.9907712,2298.4,7541,51.9,213.1,5.5,-0.36,0.63,-0.93,0,0.00,0.0
17.958,1758485354.958,1,0,0,0,0.000,19.0261666,-97.9907712,2298.4,7541,51.9,213.1,5.5,-0.36,0.63,-0.88,0,0.00,0.0
18.003,1758485355.003,1,0,0,1,0.000,19.0260245,-97.9908784,2298.6,7541,60.7,214.0,6.0,-0.37,0.68,-0.88,0,0.00,0.0
18.052,1758485355.052,1,0,0,0,0.000,19.0260245,-97.9908784,2298.6,7541,60.7,214.0,6.0,-0.37,0.56,-0.87,0,0.00,0.0
18.099,1758485355.099,1,0,0,0,0.000,19.0260245,-97.9908784,2298.6,7541,60.7,214.0,6.0,-0.50,0.69,-0.87,0,0.00,0.0
18.149,1758485355.149,1,0,0,0,0.000,19.0260245,-97.9908784,2298.6,7541,60.7,214.0,6.0,-0.27,0.60,-0.87,0,0.00,0.0
18.199,1758485355.199,1,0,0,0,0.000,19.0260245,-97.9908784,2298.6,7541,60.7,214.0,6.0,-0.48,0.69,-0.85,0,0.00,0.0
18.250,1758485355.250,1,0,0,0,0.000,19.0260245,-97.9908784,2298.6,7541,60.7,214.0,6.0,-0.32,0.65,-0.85,0,0.00,0.0
18.299,1758485355.299,1,0,0,0,0.000,19.0260245,-97.9908784,2298.6,7541,60.7,214.0,6.0,-0.48,0.65,-0.85,0,0.00,0.0
18.350,1758485355.350,1,0,0,0,0.000,19.0260245,-97.9908784,2298.6,7541,60.7,214.0,6.0,-0.34,0.62,-0.91,0,0.00,0.0
18.400,1758485355.400,1,0,0,0,0.000,19.0260245,-97.9908784,2298.6,7541,60.7,214.0,6.0,-0.43,0.62,-0.91,0,0.00,0.0
18.450,1758485355.450,1,0,0,0,0.000,19.0260245,-97.9908784,2298.6,7541,60.7,214.0,6.0,-0.34,0.60,-0.89,0,0.00,0.0
18.500,1758485355.500,1,0,0,0,0.000,19.0260245,-97.9908784,2298.6,7541,60.7,214.0,6.0,-0.35,0.64,-0.87,0,0.00,0.0
18.551,1758485355.551,1,0,0,0,0.000,19.0260245,-97.9908784,2298.6,7541,60.7,214.0,6.0,-0.35,0.57,-0.87,0,0.00,0.0
18.601,1758485355.601,1,0,0,0,0.000,19.0260245,-97.9908784,2298.6,7541,60.7,214.0,6.0,-0.35,0.60,-0.87,0,0.00,0.0
18.651,1758485355.651,1,0,0,0,0.000,19.0260245,-97.9908784,2298.6,7541,60.7,214.0,6.0,-0.35,0.60,-0.84,0,0.00,0.0
18.701,1758485355.701,1,0,0,0,0.000,19.0260245,-97.9908784,2298.6,7541,60.7,214.0,6.0,-0.35,0.61,-0.83,0,0.00,0.0
18.752,1758485355.752,1,0,0,0,0.000,19.0260245,-97.9908784,2298.6,7541,60.7,214.0,6.0,-0.32,0.63,-0.81,0,0.00,0.0
18.802,1758485355.802,1,0,0,0,0.000,19.0260245,-97.9908784,2298.6,7541,60.7,214.0,6.0,-0.32,0.63,-0.79,0,0.00,0.0
18.852,1758485355.852,1,0,0,0,0.000,19.0260245,-97.9908784,2298.6,7541,60.7,214.0,6.0,-0.32,0.63,-0.79,0,0.00,0.0
18.902,1758485355.902,1,0,0,0,0.000,19.0260245,-97.9908784,2298.6,7541,60.7,214.0,6.0,-0.29,0.61,-0.78,0,0.00,0.0
18.952,1758485355.952,1,0,0,0,0.000,19.0260245,-97.9908784,2298.6,7541,60.7,214.0,6.0,-0.29,0.61,-0.73,0,0.00,0.0
19.003,1758485356.003,1,0,0,0,0.000,19.0260245,-97.9908784,2298.6,7541,60.7,214.0,6.0,-0.25,0.64,-0.69,0,0.00,0.0
19.017,1758485356.017,1,0,0,1,0.000,19.0258617,-97.9909961,2299.1,7543,70.0,213.7,5.4,-0.25,0.64,-0.67,0,0.00,0.0
19.073,1758485356.073,1,0,0,0,0.000,19.0258617,-97.9909961,2299.1,7543,70.0,213.7,5.4,-0.25,0.64,-0.67,0,0.00,0.0
19.123,1758485356.123,1,0,0,0,0.000,19.0258617,-97.9909961,2299.1,7543,70.0,213.7,5.4,-0.20,0.64,-0.64,0,0.00,0.0
19.173,1758485356.173,1,0,0,0,0.000,19.0258617,-97.9909961,2299.1,7543,70.0,213.7,5.4,-0.18,0.68,-0.60,0,0.00,0.0
19.224,1758485356.224,1,0,0,0,0.000,19.0258617,-97.9909961,2299.1,7543,70.0,213.7,5.4,-0.15,0.68,-0.60,0,0.00,0.0
19.274,1758485356.274,1,0,0,0,0.000,19.0258617,-97.9909961,2299.1,7543,70.0,213.7,5.4,-0.15,0.66,-0.60,0,0.00,0.0
19.324,1758485356.324,1,0,0,0,0.000,19.0258617,-97.9909961,2299.1,7543,70.0,213.7,5.4,-0.15,0.64,-0.64,0,0.00,0.0
19.374,1758485356.374,1,0,0,0,0.000,19.0258617,-97.9909961,2299.1,7543,70.0,213.7,5.4,-0.15,0.66,-0.63,0,0.00,0.0
19.424,1758485356.424,1,0,0,0,0.000,19.0258617,-97.9909961,2299.1,7543,70.0,213.7,5.4,-0.19,0.66,-0.63,0,0.00,0.0
19.474,1758485356.474,1,0,0,0,0.000,19.0258617,-97.9909961,2299.1,7543,70.0,213.7,5.4,-0.19,0.66,-0.63,0,0.00,0.0
19.525,1758485356.525,1,0,0,0,0.000,19.0258617,-97.9909961,2299.1,7543,70.0,213.7,5.4,-0.19,0.69,-0.61,0,0.00,0.0
19.575,1758485356.575,1,0,0,0,0.000,19.0258617,-97.9909961,2299.1,7543,70.0,213.7,5.4,-0.20,0.69,-0.61,0,0.00,0.0
19.625,1758485356.625,1,0,0,0,0.000,19.0258617,-97.9909961,2299.1,7543,70.0,213.7,5.4,-0.20,0.69,-0.61,0,0.00,0.0
19.676,1758485356.676,1,0,0,0,0.000,19.0258617,-97.9909961,2299.1,7543,70.0,213.7,5.4,-0.20,0.68,-0.62,0,0.00,0.0
19.726,1758485356.726,1,0,0,0,0.000,19.0258617,-97.9909961,2299.1,7543,70.0,213.7,5.4,-0.17,0.68,-0.62,0,0.00,0.0
19.776,1758485356.776,1,0,0,0,0.000,19.0258617,-97.9909961,2299.1,7543,70.0,213.7,5.4,-0.12,0.69,-0.62,0,0.00,0.0
19.826,1758485356.826,1,0,0,0,0.000,19.0258617,-97.9909961,2299.1,7543,70.0,213.7,5.4,-0.12,0.74,-0.65,0,0.00,0.0
19.876,1758485356.876,1,0,0,0,0.000,19.0258617,-97.9909961,2299.1,7543,70.0,213.7,5.4,-0.12,0.71,-0.65,0,0.00,0.0
19.927,1758485356.927,1,0,0,0,0.000,19.0258617,-97.9909961,2299.1,7543,70.0,213.7,5.4,-0.09,0.74,-0.65,0,0.00,0.0
19.977,1758485356.977,1,0,0,0,0.000,19.0258617,-97.9909961,2299.1,7543,70.0,213.7,5.4,-0.06,0.74,-0.64,0,0.00,0.0
20.011,1758485357.011,1,0,0,1,0.000,19.0256789,-97.9911199,2299.5,7544,78.6,212.6,5.6,-0.09,0.74,-0.65,0,0.00,0.0
20.057,1758485357.057,1,0,0,0,0.000,19.0256789,-97.9911199,2299.5,7544,78.6,212.6,5.6,-0.03,0.76,-0.64,0,0.00,0.0
20.107,1758485357.107,1,0,0,0,0.000,19.0256789,-97.9911199,2299.5,7544,78.6,212.6,5.6,-0.01,0.70,-0.64,0,0.00,0.0
20.157,1758485357.157,1,0,0,0,0.000,19.0256789,-97.9911199,2299.5,7544,78.6,212.6,5.6,0.02,0.70,-0.64,0,0.00,0.0
20.208,1758485357.208,1,0,0,0,0.000,19.0256789,-97.9911199,2299.5,7544,78.6,212.6,5.6,0.02,0.70,-0.64,0,0.00,0.0
20.258,1758485357.258,1,0,0,0,0.000,19.0256789,-97.9911199,2299.5,7544,78.6,212.6,5.6,0.06,0.74,-0.60,0,0.00,0.0
20.308,1758485357.308,1,0,0,0,0.000,19.0256789,-97.9911199,2299.5,7544,78.6,212.6,5.6,0.10,0.74,-0.60,0,0.00,0.0
20.358,1758485357.358,1,0,0,0,0.000,19.0256789,-97.9911199,2299.5,7544,78.6,212.6,5.6,0.10,0.74,-0.60,0,0.00,0.0
20.409,1758485357.409,1,0,0,0,0.000,19.0256789,-97.9911199,2299.5,7544,78.6,212.6,5.6,0.14,0.79,-0.60,0,0.00,0.0
20.459,1758485357.459,1,0,0,0,0.000,19.0256789,-97.9911199,2299.5,7544,78.6,212.6,5.6,0.10,0.85,-0.60,0,0.00,0.0
20.509,1758485357.509,1,0,0,0,0.000,19.0256789,-97.9911199,2299.5,7544,78.6,212.6,5.6,0.14,0.79,-0.60,0,0.00,0.0
20.559,1758485357.559,1,0,0,0,0.000,19.0256789,-97.9911199,2299.5,7544,78.6,212.6,5.6,0.11,0.79,-0.68,0,0.00,0.0
20.609,1758485357.609,1,0,0,0,0.000,19.0256789,-97.9911199,2299.5,7544,78.6,212.6,5.6,0.14,0.76,-0.68,0,0.00,0.0
20.660,1758485357.660,1,0,0,0,0.000,19.0256789,-97.9911199,2299.5,7544,78.6,212.6,5.6,0.20,0.79,-0.65,0,0.00,0.0
20.710,1758485357.710,1,0,0,0,0.000,19.0256789,-97.9911199,2299.5,7544,78.6,212.6,5.6,0.20,0.81,-0.64,0,0.00,0.0
20.760,1758485357.760,1,0,0,0,0.000,19.0256789,-97.9911199,2299.5,7544,78.6,212.6,5.6,0.20,0.81,-0.64,0,0.00,0.0
20.810,1758485357.810,1,0,0,0,0.000,19.0256789,-97.9911199,2299.5,7544,78.6,212.6,5.6,0.19,0.82,-0.64,0,0.00,0.0
20.861,1758485357.861,1,0,0,0,0.000,19.0256789,-97.9911199,2299.5,7544,78.6,212.6,5.6,0.30,0.82,-0.64,1,0.00,0.0
20.911,1758485357.911,1,0,0,0,0.000,19.0256789,-97.9911199,2299.5,7544,78.6,212.6,5.6,0.19,0.82,-0.72,0,0.00,0.0
20.961,1758485357.961,1,0,0,0,0.000,19.0256789,-97.9911199,2299.5,7544,78.6,212.6,5.6,0.25,0.83,-0.72,1,0.00,0.0
21.010,1758485358.010,1,0,0,1,0.000,19.0255006,-97.9912307,2299.6,7545,79.5,211.1,5.8,0.25,0.90,-0.76,1,0.00,0.0
21.062,1758485358.062,1,0,0,0,0.000,19.0255006,-97.9912307,2299.6,7545,79.5,211.1,5.8,0.25,0.91,-0.78,1,0.00,0.0
21.111,1758485358.111,1,0,0,0,0.000,19.0255006,-97.9912307,2299.6,7545,79.5,211.1,5.8,0.27,0.91,-0.85,1,0.00,0.0
21.162,1758485358.162,1,0,0,0,0.000,19.0255006,-97.9912307,2299.6,7545,79.5,211.1,5.8,0.19,0.91,-0.85,0,0.00,0.0
21.212,1758485358.212,1,0,0,0,0.000,19.0255006,-97.9912307,2299.6,7545,79.5,211.1,5.8,0.19,0.92,-0.81,0,0.00,0.0
21.263,1758485358.263,1,0,0,0,0.000,19.0255006,-97.9912307,2299.6,7545,79.5,211.1,5.8,0.19,0.92,-0.81,0,0.00,0.0
21.312,1758485358.312,1,0,0,0,0.000,19.0255006,-97.9912307,2299.6,7545,79.5,211.1,5.8,0.24,0.81,-0.81,1,0.00,0.0
21.362,1758485358.362,1,0,0,0,0.000,19.0255006,-97.9912307,2299.6,7545,79.5,211.1,5.8,0.24,0.81,-0.89,1,0.00,0.0
21.413,1758485358.413,1,0,0,0,0.000,19.0255006,-97.9912307,2299.6,7545,79.5,211.1,5.8,0.24,0.82,-0.89,1,0.00,0.0
21.463,1758485358.463,1,0,0,0,0.000,19.0255006,-97.9912307,2299.6,7545,79.5,211.1,5.8,0.13,0.94,-0.89,0,0.00,0.0
21.513,1758485358.513,1,0,0,0,0.000,19.0255006,-97.9912307,2299.6,7545,79.5,211.1,5.8,0.13,0.82,-0.79,0,0.00,0.0
21.563,1758485358.563,1,0,0,0,0.000,19.0255006,-97.9912307,2299.6,7545,79.5,211.1,5.8,0.13,0.94,-0.79,0,0.00,0.0
21.613,1758485358.613,1,0,0,0,0.000,19.0255006,-97.9912307,2299.6,7545,79.5,211.1,5.8,0.12,0.88,-0.79,0,0.00,0.0
21.664,1758485358.664,1,0,0,0,0.000,19.0255006,-97.9912307,2299.6,7545,79.5,211.1,5.8,0.27,0.88,-0.84,1,0.00,0.0
21.714,1758485358.714,1,0,0,0,0.000,19.0255006,-97.9912307,2299.6,7545,79.5,211.1,5.8,0.00,0.88,-1.00,0,0.00,0.0
21.764,1758485358.764,1,0,0,0,0.000,19.0255006,-97.9912307,2299.6,7545,79.5,211.1,5.8,0.12,0.80,-0.93,0,0.00,0.0
21.815,1758485358.815,1,0,0,0,0.000,19.0255006,-97.9912307,2299.6,7545,79.5,211.1,5.8,0.12,0.92,-0.93,0,0.00,0.0
21.865,1758485358.865,1,0,0,0,0.000,19.0255006,-97.9912307,2299.6,7545,79.5,211.1,5.8,0.12,0.92,-0.93,0,0.00,0.0
21.915,1758485358.915,1,0,0,0,0.000,19.0255006,-97.9912307,2299.6,7545,79.5,211.1,5.8,0.23,0.92,-0.91,1,0.00,0.0
21.965,1758485358.965,1,0,0,0,0.000,19.0255006,-97.9912307,2299.6,7545,79.5,211.1,5.8,0.10,0.93,-0.91,0,0.00,0.0
22.014,1758485359.014,1,0,0,1,0.000,19.0253388,-97.9912818,2299.6,7545,71.6,203.6,6.8,0.10,0.75,-0.91,0,0.00,0.0
22.065,1758485359.065,1,0,0,0,0.000,19.0253388,-97.9912818,2299.6,7545,71.6,203.6,6.8,0.10,0.90,-0.96,0,0.00,0.0
22.116,1758485359.116,1,0,0,0,0.000,19.0253388,-97.9912818,2299.6,7545,71.6,203.6,6.8,0.06,0.87,-1.00,0,0.00,0.0
22.166,1758485359.166,1,0,0,0,0.000,19.0253388,-97.9912818,2299.6,7545,71.6,203.6,6.8,0.06,0.87,-0.98,0,0.00,0.0
22.216,1758485359.216,1,0,0,0,0.000,19.0253388,-97.9912818,2299.6,7545,71.6,203.6,6.8,0.06,0.87,-0.98,0,0.00,0.0
22.266,1758485359.266,1,0,0,0,0.000,19.0253388,-97.9912818,2299.6,7545,71.6,203.6,6.8,0.16,0.88,-0.94,0,0.00,0.0
22.317,1758485359.317,1,0,0,0,0.000,19.0253388,-97.9912818,2299.6,7545,71.6,203.6,6.8,0.16,0.90,-0.94,0,0.00,0.0
22.367,1758485359.367,1,0,0,0,0.000,19.0253388,-97.9912818,2299.6,7545,71.6,203.6,6.8,0.11,0.88,-0.96,0,0.00,0.0
22.417,1758485359.417,1,0,0,0,0.000,19.0253388,-97.9912818,2299.6,7545,71.6,203.6,6.8,0.11,0.84,-0.97,0,0.00,0.0
22.467,1758485359.467,1,0,0,0,0.000,19.0253388,-97.9912818,2299.6,7545,71.6,203.6,6.8,0.11,0.84,-0.98,0,0.00,0.0
22.518,1758485359.518,1,0,0,0,0.000,19.0253388,-97.9912818,2299.6,7545,71.6,203.6,6.8,0.11,0.84,-0.98,0,0.00,0.0
22.568,1758485359.568,1,0,0,0,0.000,19.0253388,-97.9912818,2299.6,7545,71.6,203.6,6.8,0.01,0.95,-0.99,0,0.00,0.0
22.618,1758485359.618,1,0,0,0,0.000,19.0253388,-97.9912818,2299.6,7545,71.6,203.6,6.8,0.01,0.84,-0.99,0,0.00,0.0
22.668,1758485359.668,1,0,0,0,0.000,19.0253388,-97.9912818,2299.6,7545,71.6,203.6,6.8,0.01,0.84,-0.99,0,0.00,0.0
22.718,1758485359.718,1,0,0,0,0.000,19.0253388,-97.9912818,2299.6,7545,71.6,203.6,6.8,0.03,0.84,-1.02,0,0.00,0.0
22.769,1758485359.769,1,0,0,0,0.000,19.0253388,-97.9912818,2299.6,7545,71.6,203.6,6.8,0.09,0.84,-1.00,0,0.00,0.0
22.819,1758485359.819,1,0,0,0,0.000,19.0253388,-97.9912818,2299.6,7545,71.6,203.6,6.8,0.09,0.88,-1.00,0,0.00,0.0
22.869,1758485359.869,1,0,0,0,0.000,19.0253388,-97.9912818,2299.6,7545,71.6,203.6,6.8,0.09,0.84,-1.00,0,0.00,0.0
22.919,1758485359.919,1,0,0,0,0.000,19.0253388,-97.9912818,2299.6,7545,71.6,203.6,6.8,0.10,0.79,-1.04,0,0.00,0.0
22.969,1758485359.969,1,0,0,0,0.000,19.0253388,-97.9912818,2299.6,7545,71.6,203.6,6.8,0.07,0.79,-1.04,0,0.00,0.0
23.018,1758485360.018,1,0,0,1,0.000,19.0251799,-97.9912372,2299.3,7544,63.4,183.1,6.4,0.10,0.78,-1.00,0,0.00,0.0
23.070,1758485360.070,1,0,0,0,0.000,19.0251799,-97.9912372,2299.3,7544,63.4,183.1,6.4,0.14,0.81,-0.97,0,0.00,0.0
23.120,1758485360.120,1,0,0,0,0.000,19.0251799,-97.9912372,2299.3,7544,63.4,183.1,6.4,0.14,0.83,-0.97,0,0.00,0.0
23.170,1758485360.170,1,0,0,0,0.000,19.0251799,-97.9912372,2299.3,7544,63.4,183.1,6.4,0.13,0.83,-0.97,0,0.00,0.0
23.220,1758485360.220,1,0,0,0,0.000,19.0251799,-97.9912372,2299.3,7544,63.4,183.1,6.4,0.10,0.82,-1.00,0,0.00,0.0
23.271,1758485360.271,1,0,0,0,0.000,19.0251799,-97.9912372,2299.3,7544,63.4,183.1,6.4,0.10,0.80,-1.05,0,0.00,0.0
23.321,1758485360.321,1,0,0,0,0.000,19.0251799,-97.9912372,2299.3,7544,63.4,183.1,6.4,0.10,0.82,-1.05,0,0.00,0.0
23.371,1758485360.371,1,0,0,0,0.000,19.0251799,-97.9912372,2299.3,7544,63.4,183.1,6.4,0.09,0.86,-0.96,0,0.00,0.0
23.421,1758485360.421,1,0,0,0,0.000,19.0251799,-97.9912372,2299.3,7544,63.4,183.1,6.4,0.06,0.86,-0.96,0,0.00,0.0
23.471,1758485360.471,1,0,0,0,0.000,19.0251799,-97.9912372,2299.3,7544,63.4,183.1,6.4,0.06,0.84,-1.00,0,0.00,0.0
23.522,1758485360.522,1,0,0,0,0.000,19.0251799,-97.9912372,2299.3,7544,63.4,183.1,6.4,0.03,0.79,-1.00,0,0.00,0.0
23.572,1758485360.572,1,0,0,0,0.000,19.0251799,-97.9912372,2299.3,7544,63.4,183.1,6.4,0.02,0.79,-1.00,0,0.00,0.0
23.622,1758485360.622,1,0,0,0,0.000,19.0251799,-97.9912372,2299.3,7544,63.4,183.1,6.4,0.02,0.79,-0.94,0,0.00,0.0
23.672,1758485360.672,1,0,0,0,0.000,19.0251799,-97.9912372,2299.3,7544,63.4,183.1,6.4,0.05,0.85,-0.98,0,0.00,0.0
23.723,1758485360.723,1,0,0,0,0.000,19.0251799,-97.9912372,2299.3,7544,63.4,183.1,6.4,0.05,0.81,-0.98,0,0.00,0.0
23.773,1758485360.773,1,0,0,0,0.000,19.0251799,-97.9912372,2299.3,7544,63.4,183.1,6.4,-0.03,0.81,-1.03,0,0.00,0.0
23.823,1758485360.823,1,0,0,0,0.000,19.0251799,-97.9912372,2299.3,7544,63.4,183.1,6.4,-0.11,0.81,-1.03,0,0.00,0.0
23.873,1758485360.873,1,0,0,0,0.000,19.0251799,-97.9912372,2299.3,7544,63.4,183.1,6.4,-0.11,0.75,-1.02,0,0.00,0.0
23.923,1758485360.923,1,0,0,0,0.000,19.0251799,-97.9912372,2299.3,7544,63.4,183.1,6.4,-0.11,0.75,-0.97,0,0.00,0.0
23.974,1758485360.974,1,0,0,0,0.000,19.0251799,-97.9912372,2299.3,7544,63.4,183.1,6.4,-0.02,0.75,-0.87,0,0.00,0.0
24.011,1758485361.011,1,0,0,1,0.000,19.0250508,-97.9911154,2299.6,7545,60.1,157.0,6.6,-0.11,0.72,-0.87,0,0.00,0.0
24.064,1758485361.064,1,0,0,0,0.000,19.0250508,-97.9911154,2299.6,7545,60.1,157.0,6.6,-0.07,0.75,-0.97,0,0.00,0.0
24.114,1758485361.114,1,0,0,0,0.000,19.0250508,-97.9911154,2299.6,7545,60.1,157.0,6.6,-0.07,0.75,-0.97,0,0.00,0.0
24.164,1758485361.164,1,0,0,0,0.000,19.0250508,-97.9911154,2299.6,7545,60.1,157.0,6.6,-0.07,0.75,-0.97,0,0.00,0.0
24.215,1758485361.215,1,0,0,0,0.000,19.0250508,-97.9911154,2299.6,7545,60.1,157.0,6.6,-0.13,0.78,-0.96,0,0.00,0.0
24.265,1758485361.265,1,0,0,0,0.000,19.0250508,-97.9911154,2299.6,7545,60.1,157.0,6.6,-0.15,0.75,-0.91,0,0.00,0.0
24.315,1758485361.315,1,0,0,0,0.000,19.0250508,-97.9911154,2299.6,7545,60.1,157.0,6.6,-0.15,0.73,-0.91,0,0.00,0.0
24.365,1758485361.365,1,0,0,0,0.000,19.0250508,-97.9911154,2299.6,7545,60.1,157.0,6.6,-0.16,0.73,-0.91,0,0.00,0.0
24.416,1758485361.416,1,0,0,0,0.000,19.0250508,-97.9911154,2299.6,7545,60.1,157.0,6.6,-0.20,0.70,-0.91,0,0.00,0.0
24.466,1758485361.466,1,0,0,0,0.000,19.0250508,-97.9911154,2299.6,7545,60.1,157.0,6.6,-0.17,0.66,-0.90,0,0.00,0.0
24.516,1758485361.516,1,0,0,0,0.000,19.0250508,-97.9911154,2299.6,7545,60.1,157.0,6.6,-0.21,0.66,-0.94,0,0.00,0.0
24.566,1758485361.566,1,0,0,0,0.000,19.0250508,-97.9911154,2299.6,7545,60.1,157.0,6.6,-0.28,0.66,-0.91,0,0.00,0.0
24.616,1758485361.616,1,0,0,0,0.000,19.0250508,-97.9911154,2299.6,7545,60.1,157.0,6.6,-0.28,0.69,-0.91,0,0.00,0.0
24.667,1758485361.667,1,0,0,0,0.000,19.0250508,-97.9911154,2299.6,7545,60.1,157.0,6.6,-0.29,0.69,-0.88,0,0.00,0.0
24.717,1758485361.717,1,0,0,0,0.000,19.0250508,-97.9911154,2299.6,7545,60.1,157.0,6.6,-0.22,0.69,-0.78,0,0.00,0.0
24.767,1758485361.767,1,0,0,0,0.000,19.0250508,-97.9911154,2299.6,7545,60.1,157.0,6.6,-0.25,0.69,-0.77,0,0.00,0.0
24.817,1758485361.817,1,0,0,0,0.000,19.0250508,-97.9911154,2299.6,7545,60.1,157.0,6.6,-0.25,0.58,-0.77,0,0.00,0.0
24.867,1758485361.867,1,0,0,0,0.000,19.0250508,-97.9911154,2299.6,7545,60.1,157.0,6.6,-0.29,0.62,-0.75,0,0.00,0.0
24.918,1758485361.918,1,0,0,0,0.000,19.0250508,-97.9911154,2299.6,7545,60.1,157.0,6.6,-0.36,0.62,-0.75,0,0.00,0.0
24.968,1758485361.968,1,0,0,0,0.000,19.0250508,-97.9911154,2299.6,7545,60.1,157.0,6.6,-0.39,0.62,-0.72,0,0.00,0.0
25.016,1758485362.016,1,0,0,1,0.000,19.0249731,-97.9909390,2299.7,7545,61.0,132.9,7.7,-0.40,0.71,-0.69,0,0.00,0.0
25.068,1758485362.068,1,0,0,0,0.000,19.0249731,-97.9909390,2299.7,7545,61.0,132.9,7.7,-0.40,0.61,-0.69,0,0.00,0.0
25.119,1758485362.119,1,0,0,0,0.000,19.0249731,-97.9909390,2299.7,7545,61.0,132.9,7.7,-0.42,0.56,-0.70,0,0.00,0.0
25.169,1758485362.169,1,0,0,0,0.000,19.0249731,-97.9909390,2299.7,7545,61.0,132.9,7.7,-0.44,0.56,-0.70,0,0.00,0.0
25.219,1758485362.219,1,0,0,0,0.000,19.0249731,-97.9909390,2299.7,7545,61.0,132.9,7.7,-0.44,0.55,-0.66,0,0.00,0.0
25.269,1758485362.269,1,0,0,0,0.000,19.0249731,-97.9909390,2299.7,7545,61.0,132.9,7.7,-0.35,0.54,-0.59,0,0.00,0.0
25.319,1758485362.319,1,0,0,0,0.000,19.0249731,-97.9909390,2299.7,7545,61.0,132.9,7.7,-0.35,0.54,-0.59,0,0.00,0.0
25.369,1758485362.369,1,0,0,0,0.000,19.0249731,-97.9909390,2299.7,7545,61.0,132.9,7.7,-0.44,0.54,-0.62,0,0.00,0.0
25.420,1758485362.420,1,0,0,0,0.000,19.0249731,-97.9909390,2299.7,7545,61.0,132.9,7.7,-0.45,0.55,-0.62,0,0.00,0.0
25.470,1758485362.470,1,0,0,0,0.000,19.0249731,-97.9909390,2299.7,7545,61.0,132.9,7.7,-0.45,0.53,-0.59,0,0.00,0.0
25.520,1758485362.520,1,0,0,0,0.000,19.0249731,-97.9909390,2299.7,7545,61.0,132.9,7.7,-0.52,0.51,-0.59,0,0.00,0.0
25.570,1758485362.570,1,0,0,0,0.000,19.0249731,-97.9909390,2299.7,7545,61.0,132.9,7.7,-0.57,0.51,-0.63,0,0.00,0.0
25.621,1758485362.621,1,0,0,0,0.000,19.0249731,-97.9909390,2299.7,7545,61.0,132.9,7.7,-0.52,0.46,-0.63,0,0.00,0.0
25.671,1758485362.671,1,0,0,0,0.000,19.0249731,-97.9909390,2299.7,7545,61.0,132.9,7.7,-0.49,0.52,-0.48,0,0.00,0.0
25.721,1758485362.721,1,0,0,0,0.000,19.0249731,-97.9909390,2299.7,7545,61.0,132.9,7.7,-0.49,0.50,-0.48,0,0.00,0.0
25.771,1758485362.771,1,0,0,0,0.000,19.0249731,-97.9909390,2299.7,7545,61.0,132.9,7.7,-0.49,0.50,-0.49,0,0.00,0.0
25.821,1758485362.821,1,0,0,0,0.000,19.0249731,-97.9909390,2299.7,7545,61.0,132.9,7.7,-0.56,0.50,-0.53,0,0.00,0.0
25.872,1758485362.872,1,0,0,0,0.000,19.0249731,-97.9909390,2299.7,7545,61.0,132.9,7.7,-0.53,0.45,-0.54,0,0.00,0.0
25.922,1758485362.922,1,0,0,0,0.000,19.0249731,-97.9909390,2299.7,7545,61.0,132.9,7.7,-0.53,0.54,-0.54,0,0.00,0.0
25.972,1758485362.972,1,0,0,0,0.000,19.0249731,-97.9909390,2299.7,7545,61.0,132.9,7.7,-0.53,0.49,-0.54,0,0.00,0.0
26.008,1758485363.008,1,0,0,1,0.000,19.0249207,-97.9907477,2299.4,7544,64.9,117.8,7.7,-0.53,0.49,-0.49,0,0.00,0.0
26.063,1758485363.063,1,0,0,0,0.000,19.0249207,-97.9907477,2299.4,7544,64.9,117.8,7.7,-0.53,0.47,-0.49,0,0.00,0.0
26.113,1758485363.113,1,0,0,0,0.000,19.0249207,-97.9907477,2299.4,7544,64.9,117.8,7.7,-0.50,0.41,-0.52,0,0.00,0.0
26.163,1758485363.163,1,0,0,0,0.000,19.0249207,-97.9907477,2299.4,7544,64.9,117.8,7.7,-0.52,0.47,-0.52,0,0.00,0.0
26.213,1758485363.213,1,0,0,0,0.000,19.0249207,-97.9907477,2299.4,7544,64.9,117.8,7.7,-0.52,0.40,-0.52,0,0.00,0.0
26.263,1758485363.263,1,0,0,0,0.000,19.0249207,-97.9907477,2299.4,7544,64.9,117.8,7.7,-0.54,0.49,-0.52,0,0.00,0.0
26.313,1758485363.313,1,0,0,0,0.000,19.0249207,-97.9907477,2299.4,7544,64.9,117.8,7.7,-0.54,0.49,-0.52,0,0.00,0.0
26.364,1758485363.364,1,0,0,0,0.000,19.0249207,-97.9907477,2299.4,7544,64.9,117.8,7.7,-0.56,0.49,-0.48,0,0.00,0.0
26.414,1758485363.414,1,0,0,0,0.000,19.0249207,-97.9907477,2299.4,7544,64.9,117.8,7.7,-0.54,0.49,-0.46,0,0.00,0.0
26.464,1758485363.464,1,0,0,0,0.000,19.0249207,-97.9907477,2299.4,7544,64.9,117.8,7.7,-0.59,0.51,-0.46,0,0.00,0.0
26.514,1758485363.514,1,0,0,0,0.000,19.0249207,-97.9907477,2299.4,7544,64.9,117.8,7.7,-0.56,0.45,-0.58,0,0.00,0.0
26.565,1758485363.565,1,0,0,0,0.000,19.0249207,-97.9907477,2299.4,7544,64.9,117.8,7.7,-0.60,0.49,-0.58,0,0.00,0.0
26.615,1758485363.615,1,0,0,0,0.000,19.0249207,-97.9907477,2299.4,7544,64.9,117.8,7.7,-0.56,0.45,-0.52,0,0.00,0.0
26.665,1758485363.665,1,0,0,0,0.000,19.0249207,-97.9907477,2299.4,7544,64.9,117.8,7.7,-0.58,0.49,-0.52,0,0.00,0.0
26.715,1758485363.715,1,0,0,0,0.000,19.0249207,-97.9907477,2299.4,7544,64.9,117.8,7.7,-0.49,0.45,-0.51,0,0.00,0.0
26.765,1758485363.765,1,0,0,0,0.000,19.0249207,-97.9907477,2299.4,7544,64.9,117.8,7.7,-0.58,0.49,-0.53,0,0.00,0.0
26.816,1758485363.816,1,0,0,0,0.000,19.0249207,-97.9907477,2299.4,7544,64.9,117.8,7.7,-0.55,0.45,-0.54,0,0.00,0.0
26.866,1758485363.866,1,0,0,0,0.000,19.0249207,-97.9907477,2299.4,7544,64.9,117.8,7.7,-0.56,0.49,-0.54,0,0.00,0.0
26.916,1758485363.916,1,0,0,0,0.000,19.0249207,-97.9907477,2299.4,7544,64.9,117.8,7.7,-0.56,0.51,-0.53,0,0.00,0.0
26.966,1758485363.966,1,0,0,0,0.000,19.0249207,-97.9907477,2299.4,7544,64.9,117.8,7.7,-0.56,0.51,-0.52,0,0.00,0.0
27.015,1758485364.015,1,0,0,1,0.000,19.0248279,-97.9905800,2299.4,7544,68.2,121.3,5.9,-0.62,0.52,-0.53,0,0.00,0.0
27.067,1758485364.067,1,0,0,0,0.000,19.0248279,-97.9905800,2299.4,7544,68.2,121.3,5.9,-0.51,0.46,-0.56,0,0.00,0.0
27.117,1758485364.117,1,0,0,0,0.000,19.0248279,-97.9905800,2299.4,7544,68.2,121.3,5.9,-0.60,0.48,-0.56,0,0.00,0.0
27.167,1758485364.167,1,0,0,0,0.000,19.0248279,-97.9905800,2299.4,7544,68.2,121.3,5.9,-0.57,0.45,-0.60,0,0.00,0.0
27.218,1758485364.218,1,0,0,0,0.000,19.0248279,-97.9905800,2299.4,7544,68.2,121.3,5.9,-0.60,0.47,-0.60,0,0.00,0.0
27.268,1758485364.268,1,0,0,0,0.000,19.0248279,-97.9905800,2299.4,7544,68.2,121.3,5.9,-0.57,0.47,-0.60,0,0.00,0.0
27.318,1758485364.318,1,0,0,0,0.000,19.0248279,-97.9905800,2299.4,7544,68.2,121.3,5.9,-0.60,0.49,-0.55,0,0.00,0.0
27.368,1758485364.368,1,0,0,0,0.000,19.0248279,-97.9905800,2299.4,7544,68.2,121.3,5.9,-0.59,0.50,-0.54,0,0.00,0.0
27.418,1758485364.418,1,0,0,0,0.000,19.0248279,-97.9905800,2299.4,7544,68.2,121.3,5.9,-0.59,0.50,-0.55,0,0.00,0.0
27.468,1758485364.468,1,0,0,0,0.000,19.0248279,-97.9905800,2299.4,7544,68.2,121.3,5.9,-0.59,0.46,-0.55,0,0.00,0.0
27.519,1758485364.519,1,0,0,0,0.000,19.0248279,-97.9905800,2299.4,7544,68.2,121.3,5.9,-0.61,0.46,-0.57,0,0.00,0.0
27.569,1758485364.569,1,0,0,0,0.000,19.0248279,-97.9905800,2299.4,7544,68.2,121.3,5.9,-0.61,0.50,-0.55,0,0.00,0.0
27.619,1758485364.619,1,0,0,0,0.000,19.0248279,-97.9905800,2299.4,7544,68.2,121.3,5.9,-0.59,0.50,-0.57,0,0.00,0.0
27.669,1758485364.669,1,0,0,0,0.000,19.0248279,-97.9905800,2299.4,7544,68.2,121.3,5.9,-0.58,0.48,-0.54,0,0.00,0.0
27.720,1758485364.720,1,0,0,0,0.000,19.0248279,-97.9905800,2299.4,7544,68.2,121.3,5.9,-0.58,0.46,-0.57,0,0.00,0.0
27.770,1758485364.770,1,0,0,0,0.000,19.0248279,-97.9905800,2299.4,7544,68.2,121.3,5.9,-0.58,0.48,-0.54,0,0.00,0.0
27.820,1758485364.820,1,0,0,0,0.000,19.0248279,-97.9905800,2299.4,7544,68.2,121.3,5.9,-0.58,0.46,-0.51,0,0.00,0.0
27.870,1758485364.870,1,0,0,0,0.000,19.0248279,-97.9905800,2299.4,7544,68.2,121.3,5.9,-0.58,0.49,-0.51,0,0.00,0.0
27.920,1758485364.920,1,0,0,0,0.000,19.0248279,-97.9905800,2299.4,7544,68.2,121.3,5.9,-0.58,0.45,-0.54,0,0.00,0.0
27.971,1758485364.971,1,0,0,0,0.000,19.0248279,-97.9905800,2299.4,7544,68.2,121.3,5.9,-0.63,0.53,-0.54,0,0.00,0.0
28.004,1758485365.004,1,0,0,1,0.000,19.0246711,-97.9904735,2299.3,7544,69.2,138.4,5.9,-0.64,0.48,-0.54,0,0.00,0.0
28.052,1758485365.052,1,0,0,0,0.000,19.0246711,-97.9904735,2299.3,7544,69.2,138.4,5.9,-0.64,0.52,-0.53,0,0.00,0.0
28.101,1758485365.101,1,0,0,0,0.000,19.0246711,-97.9904735,2299.3,7544,69.2,138.4,5.9,-0.64,0.52,-0.54,0,0.00,0.0
28.151,1758485365.151,1,0,0,0,0.000,19.0246711,-97.9904735,2299.3,7544,69.2,138.4,5.9,-0.59,0.52,-0.57,0,0.00,0.0
28.202,1758485365.202,1,0,0,0,0.000,19.0246711,-97.9904735,2299.3,7544,69.2,138.4,5.9,-0.60,0.48,-0.58,0,0.00,0.0
28.252,1758485365.252,1,0,0,0,0.000,19.0246711,-97.9904735,2299.3,7544,69.2,138.4,5.9,-0.60,0.48,-0.60,0,0.00,0.0
28.302,1758485365.302,1,0,0,0,0.000,19.0246711,-97.9904735,2299.3,7544,69.2,138.4,5.9,-0.60,0.48,-0.60,0,0.00,0.0
28.352,1758485365.352,1,0,0,0,0.000,19.0246711,-97.9904735,2299.3,7544,69.2,138.4,5.9,-0.61,0.49,-0.57,0,0.00,0.0
28.402,1758485365.402,1,0,0,0,0.000,19.0246711,-97.9904735,2299.3,7544,69.2,138.4,5.9,-0.54,0.48,-0.57,0,0.00,0.0
28.453,1758485365.453,1,0,0,0,0.000,19.0246711,-97.9904735,2299.3,7544,69.2,138.4,5.9,-0.61,0.47,-0.65,0,0.00,0.0
28.503,1758485365.503,1,0,0,0,0.000,19.0246711,-97.9904735,2299.3,7544,69.2,138.4,5.9,-0.56,0.47,-0.66,0,0.00,0.0
28.553,1758485365.553,1,0,0,0,0.000,19.0246711,-97.9904735,2299.3,7544,69.2,138.4,5.9,-0.56,0.47,-0.66,0,0.00,0.0
28.603,1758485365.603,1,0,0,0,0.000,19.0246711,-97.9904735,2299.3,7544,69.2,138.4,5.9,-0.56,0.49,-0.65,0,0.00,0.0
28.654,1758485365.654,1,0,0,0,0.000,19.0246711,-97.9904735,2299.3,7544,69.2,138.4,5.9,-0.54,0.52,-0.64,0,0.00,0.0
28.704,1758485365.704,1,0,0,0,0.000,19.0246711,-97.9904735,2299.3,7544,69.2,138.4,5.9,-0.54,0.49,-0.64,0,0.00,0.0
28.754,1758485365.754,1,0,0,0,0.000,19.0246711,-97.9904735,2299.3,7544,69.2,138.4,5.9,-0.54,0.48,-0.64,0,0.00,0.0
28.804,1758485365.804,1,0,0,0,0.000,19.0246711,-97.9904735,2299.3,7544,69.2,138.4,5.9,-0.55,0.48,-0.68,0,0.00,0.0
28.854,1758485365.854,1,0,0,0,0.000,19.0246711,-97.9904735,2299.3,7544,69.2,138.4,5.9,-0.55,0.48,-0.68,0,0.00,0.0
28.905,1758485365.905,1,0,0,0,0.000,19.0246711,-97.9904735,2299.3,7544,69.2,138.4,5.9,-0.55,0.51,-0.63,0,0.00,0.0
28.955,1758485365.955,1,0,0,0,0.000,19.0246711,-97.9904735,2299.3,7544,69.2,138.4,5.9,-0.54,0.51,-0.60,0,0.00,0.0
29.005,1758485366.005,1,0,0,0,0.000,19.0246711,-97.9904735,2299.3,7544,69.2,138.4,5.9,-0.64,0.55,-0.63,0,0.00,0.0
29.014,1758485366.014,1,0,0,1,0.000,19.0244756,-97.9904301,2299.1,7543,72.0,156.5,5.7,-0.64,0.55,-0.63,0,0.00,0.0
29.055,1758485366.055,1,0,0,0,0.000,19.0244756,-97.9904301,2299.1,7543,72.0,156.5,5.7,-0.49,0.41,-0.64,0,0.00,0.0
29.105,1758485366.105,1,0,0,0,0.000,19.0244756,-97.9904301,2299.1,7543,72.0,156.5,5.7,-0.65,0.55,-0.64,0,0.00,0.0
29.156,1758485366.156,1,0,0,0,0.000,19.0244756,-97.9904301,2299.1,7543,72.0,156.5,5.7,-0.55,0.51,-0.55,0,0.00,0.0
29.206,1758485366.206,1,0,0,0,0.000,19.0244756,-97.9904301,2299.1,7543,72.0,156.5,5.7,-0.62,0.65,-0.55,0,0.00,0.0
29.256,1758485366.256,1,0,0,0,0.000,19.0244756,-97.9904301,2299.1,7543,72.0,156.5,5.7,-0.62,0.51,-0.63,0,0.00,0.0
29.306,1758485366.306,1,0,0,0,0.000,19.0244756,-97.9904301,2299.1,7543,72.0,156.5,5.7,-0.62,0.52,-0.68,0,0.00,0.0
29.356,1758485366.356,1,0,0,0,0.000,19.0244756,-97.9904301,2299.1,7543,72.0,156.5,5.7,-0.62,0.47,-0.71,0,0.00,0.0
29.407,1758485366.407,1,0,0,0,0.000,19.0244756,-97.9904301,2299.1,7543,72.0,156.5,5.7,-0.54,0.50,-0.71,0,0.00,0.0
29.457,1758485366.457,1,0,0,0,0.000,19.0244756,-97.9904301,2299.1,7543,72.0,156.5,5.7,-0.54,0.50,-0.55,0,0.00,0.0
29.507,1758485366.507,1,0,0,0,0.000,19.0244756,-97.9904301,2299.1,7543,72.0,156.5,5.7,-0.45,0.50,-0.55,0,0.00,0.0
29.557,1758485366.557,1,0,0,0,0.000,19.0244756,-97.9904301,2299.1,7543,72.0,156.5,5.7,-0.54,0.50,-0.57,0,0.00,0.0
29.607,1758485366.607,1,0,0,0,0.000,19.0244756,-97.9904301,2299.1,7543,72.0,156.5,5.7,-0.55,0.50,-0.63,0,0.00,0.0
29.658,1758485366.658,1,0,0,0,0.000,19.0244756,-97.9904301,2299.1,7543,72.0,156.5,5.7,-0.72,0.56,-0.63,0,0.00,0.0
29.708,1758485366.708,1,0,0,0,0.000,19.0244756,-97.9904301,2299.1,7543,72.0,156.5,5.7,-0.55,0.41,-0.61,0,0.00,0.0
29.758,1758485366.758,1,0,0,0,0.000,19.0244756,-97.9904301,2299.1,7543,72.0,156.5,5.7,-0.74,0.65,-0.61,0,0.00,0.0
29.808,1758485366.808,1,0,0,0,0.000,19.0244756,-97.9904301,2299.1,7543,72.0,156.5,5.7,-0.48,0.38,-0.62,0,0.00,0.0
29.858,1758485366.858,1,0,0,0,0.000,19.0244756,-97.9904301,2299.1,7543,72.0,156.5,5.7,-0.69,0.64,-0.64,0,0.00,0.0
29.909,1758485366.909,1,0,0,0,0.000,19.0244756,-97.9904301,2299.1,7543,72.0,156.5,5.7,-0.48,0.41,-0.62,0,0.00,0.0
29.959,1758485366.959,1,0,0,0,0.000,19.0244756,-97.9904301,2299.1,7543,72.0,156.5,5.7,-0.44,0.55,-0.64,0,0.00,0.0
30.009,1758485367.009,1,0,0,0,0.000,19.0244756,-97.9904301,2299.1,7543,72.0,156.5,5.7,-0.44,0.45,-0.67,0,0.00,0.0
30.013,1758485367.013,1,0,0,1,0.000,19.0242644,-97.9904571,2299.2,7543,75.6,174.1,4.8,-0.44,0.45,-0.67,0,0.00,0.0
30.059,1758485367.059,1,0,0,0,0.000,19.0242644,-97.9904571,2299.2,7543,75.6,174.1,4.8,-0.44,0.45,-0.67,0,0.00,0.0
30.109,1758485367.109,1,0,0,0,0.000,19.0242644,-97.9904571,2299.2,7543,75.6,174.1,4.8,-0.59,0.45,-0.64,0,0.00,0.0
30.160,1758485367.160,1,0,0,0,0.000,19.0242644,-97.9904571,2299.2,7543,75.6,174.1,4.8,-0.50,0.54,-0.63,0,0.00,0.0
30.211,1758485367.211,1,0,0,0,0.000,19.0242644,-97.9904571,2299.2,7543,75.6,174.1,4.8,-0.55,0.58,-0.63,0,0.00,0.0
30.260,1758485367.260,1,0,0,0,0.000,19.0242644,-97.9904571,2299.2,7543,75.6,174.1,4.8,-0.52,0.54,-0.66,0,0.00,0.0
30.311,1758485367.311,1,0,0,0,0.000,19.0242644,-97.9904571,2299.2,7543,75.6,174.1,4.8,-0.55,0.52,-0.66,0,0.00,0.0
30.362,1758485367.362,1,0,0,0,0.000,19.0242644,-97.9904571,2299.2,7543,75.6,174.1,4.8,-0.52,0.47,-0.66,0,0.00,0.0
30.411,1758485367.411,1,0,0,0,0.000,19.0242644,-97.9904571,2299.2,7543,75.6,174.1,4.8,-0.51,0.52,-0.56,0,0.00,0.0
30.462,1758485367.462,1,0,0,0,0.000,19.0242644,-97.9904571,2299.2,7543,75.6,174.1,4.8,-0.46,0.47,-0.56,0,0.00,0.0
30.511,1758485367.511,1,0,0,0,0.000,19.0242644,-97.9904571,2299.2,7543,75.6,174.1,4.8,-0.48,0.51,-0.62,0,0.00,0.0
30.562,1758485367.562,1,0,0,0,0.000,19.0242644,-97.9904571,2299.2,7543,75.6,174.1,4.8,-0.46,0.51,-0.62,0,0.00,0.0
30.612,1758485367.612,1,0,0,0,0.000,19.0242644,-97.9904571,2299.2,7543,75.6,174.1,4.8,-0.46,0.52,-0.56,0,0.00,0.0
30.662,1758485367.662,1,0,0,0,0.000,19.0242644,-97.9904571,2299.2,7543,75.6,174.1,4.8,-0.46,0.61,-0.56,0,0.00,0.0
30.712,1758485367.712,1,0,0,0,0.000,19.0242644,-97.9904571,2299.2,7543,75.6,174.1,4.8,-0.55,0.61,-0.58,0,0.00,0.0
30.762,1758485367.762,1,0,0,0,0.000,19.0242644,-97.9904571,2299.2,7543,75.6,174.1,4.8,-0.58,0.58,-0.67,0,0.00,0.0
30.813,1758485367.813,1,0,0,0,0.000,19.0242644,-97.9904571,2299.2,7543,75.6,174.1,4.8,-0.55,0.47,-0.67,0,0.00,0.0
30.863,1758485367.863,1,0,0,0,0.000,19.0242644,-97.9904571,2299.2,7543,75.6,174.1,4.8,-0.58,0.58,-0.57,0,0.00,0.0
30.913,1758485367.913,1,0,0,0,0.000,19.0242644,-97.9904571,2299.2,7543,75.6,174.1,4.8,-0.44,0.46,-0.51,0,0.00,0.0
30.963,1758485367.963,1,0,0,0,0.000,19.0242644,-97.9904571,2299.2,7543,75.6,174.1,4.8,-0.58,0.53,-0.51,0,0.00,0.0
31.005,1758485368.005,1,0,0,1,0.000,19.0240525,-97.9905338,2299.5,7544,80.7,188.6,4.4,-0.44,0.46,-0.58,0,0.00,0.0
31.054,1758485368.054,1,0,0,0,0.000,19.0240525,-97.9905338,2299.5,7544,80.7,188.6,4.4,-0.58,0.53,-0.58,0,0.00,0.0
31.104,1758485368.104,1,0,0,0,0.000,19.0240525,-97.9905338,2299.5,7544,80.7,188.6,4.4,-0.55,0.49,-0.55,0,0.00,0.0
31.154,1758485368.154,1,0,0,0,0.000,19.0240525,-97.9905338,2299.5,7544,80.7,188.6,4.4,-0.55,0.52,-0.50,0,0.00,0.0
31.204,1758485368.204,1,0,0,0,0.000,19.0240525,-97.9905338,2299.5,7544,80.7,188.6,4.4,-0.50,0.49,-0.50,0,0.00,0.0
31.254,1758485368.254,1,0,0,0,0.000,19.0240525,-97.9905338,2299.5,7544,80.7,188.6,4.4,-0.50,0.52,-0.52,0,0.00,0.0
31.305,1758485368.305,1,0,0,0,0.000,19.0240525,-97.9905338,2299.5,7544,80.7,188.6,4.4,-0.44,0.46,-0.52,0,0.00,0.0
31.355,1758485368.355,1,0,0,0,0.000,19.0240525,-97.9905338,2299.5,7544,80.7,188.6,4.4,-0.53,0.52,-0.52,0,0.00,0.0
31.405,1758485368.405,1,0,0,0,0.000,19.0240525,-97.9905338,2299.5,7544,80.7,188.6,4.4,-0.53,0.46,-0.54,0,0.00,0.0
31.455,1758485368.455,1,0,0,0,0.000,19.0240525,-97.9905338,2299.5,7544,80.7,188.6,4.4,-0.53,0.45,-0.54,0,0.00,0.0
31.506,1758485368.506,1,0,0,0,0.000,19.0240525,-97.9905338,2299.5,7544,80.7,188.6,4.4,-0.49,0.45,-0.39,0,0.00,0.0
31.556,1758485368.556,1,0,0,0,0.000,19.0240525,-97.9905338,2299.5,7544,80.7,188.6,4.4,-0.49,0.43,-0.37,0,0.00,0.0
31.606,1758485368.606,1,0,0,0,0.000,19.0240525,-97.9905338,2299.5,7544,80.7,188.6,4.4,-0.44,0.48,-0.32,0,0.00,0.0
31.656,1758485368.656,1,0,0,0,0.000,19.0240525,-97.9905338,2299.5,7544,80.7,188.6,4.4,-0.44,0.45,-0.32,0,0.00,0.0
31.706,1758485368.706,1,0,0,0,0.000,19.0240525,-97.9905338,2299.5,7544,80.7,188.6,4.4,-0.49,0.50,-0.32,0,0.00,0.0
31.757,1758485368.757,1,0,0,0,0.000,19.0240525,-97.9905338,2299.5,7544,80.7,188.6,4.4,-0.52,0.50,-0.35,0,0.00,0.0
31.807,1758485368.807,1,0,0,0,0.000,19.0240525,-97.9905338,2299.5,7544,80.7,188.6,4.4,-0.54,0.50,-0.35,0,0.00,0.0
31.857,1758485368.857,1,0,0,0,0.000,19.0240525,-97.9905338,2299.5,7544,80.7,188.6,4.4,-0.59,0.50,-0.37,0,0.00,0.0
31.907,1758485368.907,1,0,0,0,0.000,19.0240525,-97.9905338,2299.5,7544,80.7,188.6,4.4,-0.54,0.43,-0.36,0,0.00,0.0
31.958,1758485368.958,1,0,0,0,0.000,19.0240525,-97.9905338,2299.5,7544,80.7,188.6,4.4,-0.58,0.50,-0.36,0,0.00,0.0
32.007,1758485369.007,1,0,0,1,0.000,19.0238530,-97.9906611,2299.7,7545,85.1,200.9,6.2,-0.46,0.44,-0.33,0,0.00,0.0
32.058,1758485369.058,1,0,0,0,0.000,19.0238530,-97.9906611,2299.7,7545,85.1,200.9,6.2,-0.53,0.61,-0.33,0,0.00,0.0
32.108,1758485369.108,1,0,0,0,0.000,19.0238530,-97.9906611,2299.7,7545,85.1,200.9,6.2,-0.50,0.44,-0.36,0,0.00,0.0
32.158,1758485369.158,1,0,0,0,0.000,19.0238530,-97.9906611,2299.7,7545,85.1,200.9,6.2,-0.53,0.56,-0.40,0,0.00,0.0
32.208,1758485369.208,1,0,0,0,0.000,19.0238530,-97.9906611,2299.7,7545,85.1,200.9,6.2,-0.50,0.42,-0.40,0,0.00,0.0
32.259,1758485369.259,1,0,0,0,0.000,19.0238530,-97.9906611,2299.7,7545,85.1,200.9,6.2,-0.67,0.56,-0.39,0,0.00,0.0
32.309,1758485369.309,1,0,0,0,0.000,19.0238530,-97.9906611,2299.7,7545,85.1,200.9,6.2,-0.42,0.36,-0.33,0,0.00,0.0
32.360,1758485369.360,1,0,0,0,0.000,19.0238530,-97.9906611,2299.7,7545,85.1,200.9,6.2,-0.49,0.55,-0.33,0,0.00,0.0
32.409,1758485369.409,1,0,0,0,0.000,19.0238530,-97.9906611,2299.7,7545,85.1,200.9,6.2,-0.38,0.42,-0.41,0,0.00,0.0
32.460,1758485369.460,1,0,0,0,0.000,19.0238530,-97.9906611,2299.7,7545,85.1,200.9,6.2,-0.49,0.55,-0.41,0,0.00,0.0
32.510,1758485369.510,1,0,0,0,0.000,19.0238530,-97.9906611,2299.7,7545,85.1,200.9,6.2,-0.54,0.56,-0.29,0,0.00,0.0
32.560,1758485369.560,1,0,0,0,0.000,19.0238530,-97.9906611,2299.7,7545,85.1,200.9,6.2,-0.54,0.56,-0.29,0,0.00,0.0
32.610,1758485369.610,1,0,0,0,0.000,19.0238530,-97.9906611,2299.7,7545,85.1,200.9,6.2,-0.54,0.58,-0.32,0,0.00,0.0
32.660,1758485369.660,1,0,0,0,0.000,19.0238530,-97.9906611,2299.7,7545,85.1,200.9,6.2,-0.39,0.44,-0.39,0,0.00,0.0
32.711,1758485369.711,1,0,0,0,0.000,19.0238530,-97.9906611,2299.7,7545,85.1,200.9,6.2,-0.77,0.72,-0.43,0,0.00,0.0
32.761,1758485369.761,1,0,0,0,0.000,19.0238530,-97.9906611,2299.7,7545,85.1,200.9,6.2,-0.30,0.25,-0.43,0,0.00,0.0
32.811,1758485369.811,1,0,0,0,0.000,19.0238530,-97.9906611,2299.7,7545,85.1,200.9,6.2,-0.73,0.67,-0.44,0,0.00,0.0
32.861,1758485369.861,1,0,0,0,0.000,19.0238530,-97.9906611,2299.7,7545,85.1,200.9,6.2,-0.28,0.39,-0.40,0,0.00,0.0
32.911,1758485369.911,1,0,0,0,0.000,19.0238530,-97.9906611,2299.7,7545,85.1,200.9,6.2,-0.46,0.48,-0.44,0,0.00,0.0
32.962,1758485369.962,1,0,0,0,0.000,19.0238530,-97.9906611,2299.7,7545,85.1,200.9,6.2,-0.39,0.39,-0.47,0,0.00,0.0
33.012,1758485370.012,1,0,0,0,0.000,19.0238530,-97.9906611,2299.7,7545,85.1,200.9,6.2,-0.46,0.48,-0.47,0,0.00,0.0
33.014,1758485370.014,1,0,0,1,0.000,19.0236908,-97.9908299,2299.8,7545,85.3,213.7,5.5,-0.46,0.48,-0.47,0,0.00,0.0
33.062,1758485370.062,1,0,0,0,0.000,19.0236908,-97.9908299,2299.8,7545,85.3,213.7,5.5,-0.39,0.37,-0.44,0,0.00,0.0
33.112,1758485370.112,1,0,0,0,0.000,19.0236908,-97.9908299,2299.8,7545,85.3,213.7,5.5,-0.30,0.54,-0.34,0,0.00,0.0
33.163,1758485370.163,1,0,0,0,0.000,19.0236908,-97.9908299,2299.8,7545,85.3,213.7,5.5,-0.29,0.51,-0.34,0,0.00,0.0
33.213,1758485370.213,1,0,0,0,0.000,19.0236908,-97.9908299,2299.8,7545,85.3,213.7,5.5,-0.30,0.54,-0.27,0,0.00,0.0
33.263,1758485370.263,1,0,0,0,0.000,19.0236908,-97.9908299,2299.8,7545,85.3,213.7,5.5,-0.31,0.57,-0.35,0,0.00,0.0
33.313,1758485370.313,1,0,0,0,0.000,19.0236908,-97.9908299,2299.8,7545,85.3,213.7,5.5,-0.31,0.57,-0.36,0,0.00,0.0
33.363,1758485370.363,1,0,0,0,0.000,19.0236908,-97.9908299,2299.8,7545,85.3,213.7,5.5,-0.30,0.57,-0.37,0,0.00,0.0
33.414,1758485370.414,1,0,0,0,0.000,19.0236908,-97.9908299,2299.8,7545,85.3,213.7,5.5,-0.29,0.59,-0.36,0,0.00,0.0
33.464,1758485370.464,1,0,0,0,0.000,19.0236908,-97.9908299,2299.8,7545,85.3,213.7,5.5,-0.04,0.63,-0.35,0,0.00,0.0
33.514,1758485370.514,1,0,0,0,0.000,19.0236908,-97.9908299,2299.8,7545,85.3,213.7,5.5,0.10,0.64,-0.35,0,0.00,0.0
33.564,1758485370.564,1,0,0,0,0.000,19.0236908,-97.9908299,2299.8,7545,85.3,213.7,5.5,0.10,0.67,-0.43,0,0.00,0.0
33.615,1758485370.615,1,0,0,0,0.000,19.0236908,-97.9908299,2299.8,7545,85.3,213.7,5.5,-0.05,0.69,-0.43,0,0.00,0.0
33.665,1758485370.665,1,0,0,0,0.000,19.0236908,-97.9908299,2299.8,7545,85.3,213.7,5.5,-0.05,0.69,-0.47,0,0.00,0.0
33.715,1758485370.715,1,0,0,0,0.000,19.0236908,-97.9908299,2299.8,7545,85.3,213.7,5.5,-0.05,0.69,-0.47,0,0.00,0.0
33.765,1758485370.765,1,0,0,0,0.000,19.0236908,-97.9908299,2299.8,7545,85.3,213.7,5.5,0.12,0.62,-0.33,0,0.00,0.0
33.815,1758485370.815,1,0,0,0,0.000,19.0236908,-97.9908299,2299.8,7545,85.3,213.7,5.5,0.04,0.75,-0.33,0,0.00,0.0
33.865,1758485370.865,1,0,0,0,0.000,19.0236908,-97.9908299,2299.8,7545,85.3,213.7,5.5,0.18,0.66,-0.37,0,0.00,0.0
33.916,1758485370.916,1,0,0,0,0.000,19.0236908,-97.9908299,2299.8,7545,85.3,213.7,5.5,0.18,0.75,-0.38,0,0.00,0.0
33.966,1758485370.966,1,0,0,0,0.000,19.0236908,-97.9908299,2299.8,7545,85.3,213.7,5.5,0.18,0.76,-0.38,0,0.00,0.0
34.013,1758485371.013,1,0,0,1,0.000,19.0236012,-97.9910387,2300.2,7547,80.3,230.6,7.6,0.22,0.84,-0.38,1,0.00,0.0
34.066,1758485371.066,1,0,0,0,0.000,19.0236012,-97.9910387,2300.2,7547,80.3,230.6,7.6,0.17,0.85,-0.39,0,0.00,0.0
34.117,1758485371.117,1,0,0,0,0.000,19.0236012,-97.9910387,2300.2,7547,80.3,230.6,7.6,0.27,0.84,-0.47,1,0.00,0.0
34.167,1758485371.167,1,0,0,0,0.000,19.0236012,-97.9910387,2300.2,7547,80.3,230.6,7.6,0.20,0.87,-0.60,1,0.00,0.0
34.217,1758485371.217,1,0,0,0,0.000,19.0236012,-97.9910387,2300.2,7547,80.3,230.6,7.6,0.27,0.82,-0.60,1,0.00,0.0
34.267,1758485371.267,1,0,0,0,0.000,19.0236012,-97.9910387,2300.2,7547,80.3,230.6,7.6,0.20,0.90,-0.55,1,0.00,0.0
34.318,1758485371.318,1,0,0,0,0.000,19.0236012,-97.9910387,2300.2,7547,80.3,230.6,7.6,0.30,0.82,-0.55,1,0.00,0.0
34.368,1758485371.368,1,0,0,0,0.000,19.0236012,-97.9910387,2300.2,7547,80.3,230.6,7.6,0.20,0.90,-0.68,0,0.00,0.0
34.418,1758485371.418,1,0,0,0,0.000,19.0236012,-97.9910387,2300.2,7547,80.3,230.6,7.6,0.19,0.89,-0.71,0,0.00,0.0
34.468,1758485371.468,1,0,0,0,0.000,19.0236012,-97.9910387,2300.2,7547,80.3,230.6,7.6,0.15,0.90,-0.74,0,0.00,0.0
34.518,1758485371.518,1,0,0,0,0.000,19.0236012,-97.9910387,2300.2,7547,80.3,230.6,7.6,0.16,0.89,-0.77,0,0.00,0.0
34.569,1758485371.569,1,0,0,0,0.000,19.0236012,-97.9910387,2300.2,7547,80.3,230.6,7.6,0.16,0.82,-0.81,0,0.00,0.0
34.619,1758485371.619,1,0,0,0,0.000,19.0236012,-97.9910387,2300.2,7547,80.3,230.6,7.6,0.16,0.82,-0.96,0,0.00,0.0
34.669,1758485371.669,1,0,0,0,0.000,19.0236012,-97.9910387,2300.2,7547,80.3,230.6,7.6,0.21,0.81,-0.96,1,0.00,0.0
34.719,1758485371.719,1,0,0,0,0.000,19.0236012,-97.9910387,2300.2,7547,80.3,230.6,7.6,0.20,0.89,-0.85,0,0.00,0.0
34.769,1758485371.769,1,0,0,0,0.000,19.0236012,-97.9910387,2300.2,7547,80.3,230.6,7.6,0.25,0.74,-0.83,1,0.00,0.0
34.820,1758485371.820,1,0,0,0,0.000,19.0236012,-97.9910387,2300.2,7547,80.3,230.6,7.6,0.20,0.89,-0.83,0,0.00,0.0
34.870,1758485371.870,1,0,0,0,0.000,19.0236012,-97.9910387,2300.2,7547,80.3,230.6,7.6,0.23,0.76,-0.87,1,0.00,0.0
34.920,1758485371.920,1,0,0,0,0.000,19.0236012,-97.9910387,2300.2,7547,80.3,230.6,7.6,0.19,0.79,-0.93,0,0.00,0.0
34.970,1758485371.970,1,0,0,0,0.000,19.0236012,-97.9910387,2300.2,7547,80.3,230.6,7.6,0.22,0.79,-0.91,1,0.00,0.0
35.017,1758485372.017,1,0,0,1,0.000,19.0235654,-97.9912280,2300.9,7549,71.7,244.4,7.6,0.22,0.82,-0.93,1,0.00,0.0
35.071,1758485372.071,1,0,0,0,0.000,19.0235654,-97.9912280,2300.9,7549,71.7,244.4,7.6,0.24,0.87,-0.91,1,0.00,0.0
35.121,1758485372.121,1,0,0,0,0.000,19.0235654,-97.9912280,2300.9,7549,71.7,244.4,7.6,0.29,0.83,-0.93,1,0.00,0.0
35.171,1758485372.171,1,0,0,0,0.000,19.0235654,-97.9912280,2300.9,7549,71.7,244.4,7.6,0.24,0.92,-0.93,1,0.00,0.0
35.221,1758485372.221,1,0,0,0,0.000,19.0235654,-97.9912280,2300.9,7549,71.7,244.4,7.6,0.22,0.91,-0.97,1,0.00,0.0
35.271,1758485372.271,1,0,0,0,0.000,19.0235654,-97.9912280,2300.9,7549,71.7,244.4,7.6,0.21,0.91,-1.00,1,0.00,0.0
35.322,1758485372.322,1,0,0,0,0.000,19.0235654,-97.9912280,2300.9,7549,71.7,244.4,7.6,0.21,0.91,-1.00,1,0.00,0.0
35.372,1758485372.372,1,0,0,0,0.000,19.0235654,-97.9912280,2300.9,7549,71.7,244.4,7.6,0.14,0.93,-0.98,0,0.00,0.0
35.422,1758485372.422,1,0,0,0,0.000,19.0235654,-97.9912280,2300.9,7549,71.7,244.4,7.6,0.14,0.93,-0.98,0,0.00,0.0
35.472,1758485372.472,1,0,0,0,0.000,19.0235654,-97.9912280,2300.9,7549,71.7,244.4,7.6,0.14,0.88,-1.02,0,0.00,0.0
35.522,1758485372.522,1,0,0,0,0.000,19.0235654,-97.9912280,2300.9,7549,71.7,244.4,7.6,0.14,0.86,-1.02,0,0.00,0.0
35.573,1758485372.573,1,0,0,0,0.000,19.0235654,-97.9912280,2300.9,7549,71.7,244.4,7.6,0.11,0.86,-0.99,0,0.00,0.0
35.623,1758485372.623,1,0,0,0,0.000,19.0235654,-97.9912280,2300.9,7549,71.7,244.4,7.6,0.11,0.86,-0.99,0,0.00,0.0
35.673,1758485372.673,1,0,0,0,0.000,19.0235654,-97.9912280,2300.9,7549,71.7,244.4,7.6,0.11,0.82,-0.98,0,0.00,0.0
35.723,1758485372.723,1,0,0,0,0.000,19.0235654,-97.9912280,2300.9,7549,71.7,244.4,7.6,0.11,0.82,-0.97,0,0.00,0.0
35.774,1758485372.774,1,0,0,0,0.000,19.0235654,-97.9912280,2300.9,7549,71.7,244.4,7.6,0.11,0.89,-0.92,0,0.00,0.0
35.824,1758485372.824,1,0,0,0,0.000,19.0235654,-97.9912280,2300.9,7549,71.7,244.4,7.6,0.19,0.89,-0.97,0,0.00,0.0
35.874,1758485372.874,1,0,0,0,0.000,19.0235654,-97.9912280,2300.9,7549,71.7,244.4,7.6,0.19,0.86,-1.01,0,0.00,0.0
35.924,1758485372.924,1,0,0,0,0.000,19.0235654,-97.9912280,2300.9,7549,71.7,244.4,7.6,0.11,0.82,-1.05,0,0.00,0.0
35.975,1758485372.975,1,0,0,0,0.000,19.0235654,-97.9912280,2300.9,7549,71.7,244.4,7.6,0.01,0.86,-1.05,0,0.00,0.0
36.002,1758485373.002,1,0,0,1,0.000,19.0234909,-97.9913172,2300.9,7549,55.9,234.7,7.8,0.11,0.94,-1.03,0,0.00,0.0
36.055,1758485373.055,1,0,0,0,0.000,19.0234909,-97.9913172,2300.9,7549,55.9,234.7,7.8,0.16,0.94,-0.99,0,0.00,0.0
36.105,1758485373.105,1,0,0,0,0.000,19.0234909,-97.9913172,2300.9,7549,55.9,234.7,7.8,0.16,0.85,-0.96,0,0.00,0.0
36.155,1758485373.155,1,0,0,0,0.000,19.0234909,-97.9913172,2300.9,7549,55.9,234.7,7.8,0.07,0.85,-0.99,0,0.00,0.0
36.205,1758485373.205,1,0,0,0,0.000,19.0234909,-97.9913172,2300.9,7549,55.9,234.7,7.8,0.06,0.85,-1.02,0,0.00,0.0
36.256,1758485373.256,1,0,0,0,0.000,19.0234909,-97.9913172,2300.9,7549,55.9,234.7,7.8,0.07,0.82,-1.02,0,0.00,0.0
36.306,1758485373.306,1,0,0,0,0.000,19.0234909,-97.9913172,2300.9,7549,55.9,234.7,7.8,0.09,0.87,-1.01,0,0.00,0.0
36.356,1758485373.356,1,0,0,0,0.000,19.0234909,-97.9913172,2300.9,7549,55.9,234.7,7.8,0.09,0.87,-1.01,0,0.00,0.0
36.406,1758485373.406,1,0,0,0,0.000,19.0234909,-97.9913172,2300.9,7549,55.9,234.7,7.8,0.09,0.87,-1.01,0,0.00,0.0
36.456,1758485373.456,1,0,0,0,0.000,19.0234909,-97.9913172,2300.9,7549,55.9,234.7,7.8,0.09,0.86,-1.01,0,0.00,0.0
36.507,1758485373.507,1,0,0,0,0.000,19.0234909,-97.9913172,2300.9,7549,55.9,234.7,7.8,0.14,0.84,-1.01,0,0.00,0.0
36.557,1758485373.557,1,0,0,0,0.000,19.0234909,-97.9913172,2300.9,7549,55.9,234.7,7.8,0.08,0.84,-1.05,0,0.00,0.0
36.607,1758485373.607,1,0,0,0,0.000,19.0234909,-97.9913172,2300.9,7549,55.9,234.7,7.8,0.14,0.84,-1.05,0,0.00,0.0
36.658,1758485373.658,1,0,0,0,0.000,19.0234909,-97.9913172,2300.9,7549,55.9,234.7,7.8,0.07,0.84,-1.04,0,0.00,0.0
36.707,1758485373.707,1,0,0,0,0.000,19.0234909,-97.9913172,2300.9,7549,55.9,234.7,7.8,0.07,0.84,-1.02,0,0.00,0.0
36.758,1758485373.758,1,0,0,0,0.000,19.0234909,-97.9913172,2300.9,7549,55.9,234.7,7.8,0.07,0.82,-0.99,0,0.00,0.0
36.808,1758485373.808,1,0,0,0,0.000,19.0234909,-97.9913172,2300.9,7549,55.9,234.7,7.8,0.13,0.84,-0.99,0,0.00,0.0
36.858,1758485373.858,1,0,0,0,0.000,19.0234909,-97.9913172,2300.9,7549,55.9,234.7,7.8,0.13,0.86,-0.99,0,0.00,0.0
36.908,1758485373.908,1,0,0,0,0.000,19.0234909,-97.9913172,2300.9,7549,55.9,234.7,7.8,0.11,0.86,-1.01,0,0.00,0.0
36.959,1758485373.959,1,0,0,0,0.000,19.0234909,-97.9913172,2300.9,7549,55.9,234.7,7.8,0.11,0.86,-1.01,0,0.00,0.0
37.008,1758485374.008,1,0,0,1,0.000,19.0233548,-97.9913220,2300.5,7547,50.9,204.4,6.6,0.11,0.87,-1.03,0,0.00,0.0
37.059,1758485374.059,1,0,0,0,0.000,19.0233548,-97.9913220,2300.5,7547,50.9,204.4,6.6,0.10,0.86,-1.06,0,0.00,0.0
37.109,1758485374.109,1,0,0,0,0.000,19.0233548,-97.9913220,2300.5,7547,50.9,204.4,6.6,0.09,0.86,-1.07,0,0.00,0.0
37.159,1758485374.159,1,0,0,0,0.000,19.0233548,-97.9913220,2300.5,7547,50.9,204.4,6.6,0.09,0.86,-1.07,0,0.00,0.0
37.210,1758485374.210,1,0,0,0,0.000,19.0233548,-97.9913220,2300.5,7547,50.9,204.4,6.6,0.09,0.82,-1.05,0,0.00,0.0
37.260,1758485374.260,1,0,0,0,0.000,19.0233548,-97.9913220,2300.5,7547,50.9,204.4,6.6,0.13,0.82,-1.04,0,0.00,0.0
37.310,1758485374.310,1,0,0,0,0.000,19.0233548,-97.9913220,2300.5,7547,50.9,204.4,6.6,0.13,0.82,-1.02,0,0.00,0.0
37.360,1758485374.360,1,0,0,0,0.000,19.0233548,-97.9913220,2300.5,7547,50.9,204.4,6.6,0.10,0.85,-1.00,0,0.00,0.0
37.410,1758485374.410,1,0,0,0,0.000,19.0233548,-97.9913220,2300.5,7547,50.9,204.4,6.6,0.10,0.85,-1.00,0,0.00,0.0
37.461,1758485374.461,1,0,0,0,0.000,19.0233548,-97.9913220,2300.5,7547,50.9,204.4,6.6,0.12,0.83,-1.00,0,0.00,0.0
37.511,1758485374.511,1,0,0,0,0.000,19.0233548,-97.9913220,2300.5,7547,50.9,204.4,6.6,0.12,0.83,-1.03,0,0.00,0.0
37.561,1758485374.561,1,0,0,0,0.000,19.0233548,-97.9913220,2300.5,7547,50.9,204.4,6.6,0.11,0.83,-1.03,0,0.00,0.0
37.611,1758485374.611,1,0,0,0,0.000,19.0233548,-97.9913220,2300.5,7547,50.9,204.4,6.6,0.11,0.91,-1.03,0,0.00,0.0
37.662,1758485374.662,1,0,0,0,0.000,19.0233548,-97.9913220,2300.5,7547,50.9,204.4,6.6,0.17,0.91,-1.03,0,0.00,0.0
37.712,1758485374.712,1,0,0,0,0.000,19.0233548,-97.9913220,2300.5,7547,50.9,204.4,6.6,0.17,0.89,-1.04,0,0.00,0.0
37.762,1758485374.762,1,0,0,0,0.000,19.0233548,-97.9913220,2300.5,7547,50.9,204.4,6.6,0.09,0.87,-1.05,0,0.00,0.0
37.812,1758485374.812,1,0,0,0,0.000,19.0233548,-97.9913220,2300.5,7547,50.9,204.4,6.6,0.09,0.89,-1.05,0,0.00,0.0
37.863,1758485374.863,1,0,0,0,0.000,19.0233548,-97.9913220,2300.5,7547,50.9,204.4,6.6,0.11,0.89,-1.03,0,0.00,0.0
37.913,1758485374.913,1,0,0,0,0.000,19.0233548,-97.9913220,2300.5,7547,50.9,204.4,6.6,0.13,0.89,-0.99,0,0.00,0.0
37.963,1758485374.963,1,0,0,0,0.000,19.0233548,-97.9913220,2300.5,7547,50.9,204.4,6.6,0.13,0.87,-0.99,0,0.00,0.0
38.011,1758485375.011,1,0,0,1,0.000,19.0232157,-97.9912488,2300.2,7547,52.1,173.3,5.8,0.13,0.87,-1.02,0,0.00,0.0
38.063,1758485375.063,1,0,0,0,0.000,19.0232157,-97.9912488,2300.2,7547,52.1,173.3,5.8,0.14,0.91,-1.02,0,0.00,0.0
38.114,1758485375.114,1,0,0,0,0.000,19.0232157,-97.9912488,2300.2,7547,52.1,173.3,5.8,0.14,0.91,-1.02,0,0.00,0.0
38.164,1758485375.164,1,0,0,0,0.000,19.0232157,-97.9912488,2300.2,7547,52.1,173.3,5.8,0.14,0.87,-1.04,0,0.00,0.0
38.214,1758485375.214,1,0,0,0,0.000,19.0232157,-97.9912488,2300.2,7547,52.1,173.3,5.8,0.10,0.86,-1.04,0,0.00,0.0
38.264,1758485375.264,1,0,0,0,0.000,19.0232157,-97.9912488,2300.2,7547,52.1,173.3,5.8,0.08,0.86,-1.04,0,0.00,0.0
38.314,1758485375.314,1,0,0,0,0.000,19.0232157,-97.9912488,2300.2,7547,52.1,173.3,5.8,0.08,0.86,-1.04,0,0.00,0.0
38.364,1758485375.364,1,0,0,0,0.000,19.0232157,-97.9912488,2300.2,7547,52.1,173.3,5.8,0.07,0.81,-1.04,0,0.00,0.0
38.415,1758485375.415,1,0,0,0,0.000,19.0232157,-97.9912488,2300.2,7547,52.1,173.3,5.8,0.12,0.83,-1.02,0,0.00,0.0
38.465,1758485375.465,1,0,0,0,0.000,19.0232157,-97.9912488,2300.2,7547,52.1,173.3,5.8,0.09,0.83,-0.96,0,0.00,0.0
38.515,1758485375.515,1,0,0,0,0.000,19.0232157,-97.9912488,2300.2,7547,52.1,173.3,5.8,0.12,0.83,-0.96,0,0.00,0.0
38.565,1758485375.565,1,0,0,0,0.000,19.0232157,-97.9912488,2300.2,7547,52.1,173.3,5.8,0.12,0.81,-1.04,0,0.00,0.0
38.616,1758485375.616,1,0,0,0,0.000,19.0232157,-97.9912488,2300.2,7547,52.1,173.3,5.8,0.12,0.81,-1.07,0,0.00,0.0
38.666,1758485375.666,1,0,0,0,0.000,19.0232157,-97.9912488,2300.2,7547,52.1,173.3,5.8,0.11,0.82,-1.08,0,0.00,0.0
38.716,1758485375.716,1,0,0,0,0.000,19.0232157,-97.9912488,2300.2,7547,52.1,173.3,5.8,0.11,0.86,-1.08,0,0.00,0.0
38.766,1758485375.766,1,0,0,0,0.000,19.0232157,-97.9912488,2300.2,7547,52.1,173.3,5.8,0.19,0.83,-1.05,0,0.00,0.0
38.816,1758485375.816,1,0,0,0,0.000,19.0232157,-97.9912488,2300.2,7547,52.1,173.3,5.8,0.19,0.86,-1.04,0,0.00,0.0
38.867,1758485375.867,1,0,0,0,0.000,19.0232157,-97.9912488,2300.2,7547,52.1,173.3,5.8,0.19,0.83,-1.02,0,0.00,0.0
38.917,1758485375.917,1,0,0,0,0.000,19.0232157,-97.9912488,2300.2,7547,52.1,173.3,5.8,0.12,0.82,-1.02,0,0.00,0.0
38.967,1758485375.967,1,0,0,0,0.000,19.0232157,-97.9912488,2300.2,7547,52.1,173.3,5.8,0.12,0.82,-1.00,0,0.00,0.0
39.008,1758485376.008,1,0,0,1,0.000,19.0231144,-97.9911045,2300.3,7547,53.8,143.6,7.4,0.12,0.82,-1.00,0,0.00,0.0
39.058,1758485376.058,1,0,0,0,0.000,19.0231144,-97.9911045,2300.3,7547,53.8,143.6,7.4,0.12,0.84,-1.00,0,0.00,0.0
39.108,1758485376.108,1,0,0,0,0.000,19.0231144,-97.9911045,2300.3,7547,53.8,143.6,7.4,0.10,0.84,-0.97,0,0.00,0.0
39.158,1758485376.158,1,0,0,0,0.000,19.0231144,-97.9911045,2300.3,7547,53.8,143.6,7.4,0.12,0.84,-1.02,0,0.00,0.0
39.208,1758485376.208,1,0,0,0,0.000,19.0231144,-97.9911045,2300.3,7547,53.8,143.6,7.4,0.03,0.85,-1.08,0,0.00,0.0
39.258,1758485376.258,1,0,0,0,0.000,19.0231144,-97.9911045,2300.3,7547,53.8,143.6,7.4,0.14,0.80,-1.08,0,0.00,0.0
39.309,1758485376.309,1,0,0,0,0.000,19.0231144,-97.9911045,2300.3,7547,53.8,143.6,7.4,-0.03,0.95,-1.05,0,0.00,0.0
39.359,1758485376.359,1,0,0,0,0.000,19.0231144,-97.9911045,2300.3,7547,53.8,143.6,7.4,-0.00,0.80,-1.05,0,0.00,0.0
39.409,1758485376.409,1,0,0,0,0.000,19.0231144,-97.9911045,2300.3,7547,53.8,143.6,7.4,-0.00,0.75,-1.07,0,0.00,0.0
39.459,1758485376.459,1,0,0,0,0.000,19.0231144,-97.9911045,2300.3,7547,53.8,143.6,7.4,-0.00,0.75,-1.15,0,0.00,0.0
39.509,1758485376.509,1,0,0,0,0.000,19.0231144,-97.9911045,2300.3,7547,53.8,143.6,7.4,-0.07,0.75,-1.13,0,0.00,0.0
39.560,1758485376.560,1,0,0,0,0.000,19.0231144,-97.9911045,2300.3,7547,53.8,143.6,7.4,-0.07,0.87,-1.13,0,0.00,0.0
39.610,1758485376.610,1,0,0,0,0.000,19.0231144,-97.9911045,2300.3,7547,53.8,143.6,7.4,-0.07,0.83,-1.11,0,0.00,0.0
39.660,1758485376.660,1,0,0,0,0.000,19.0231144,-97.9911045,2300.3,7547,53.8,143.6,7.4,-0.10,0.83,-1.11,0,0.00,0.0
39.710,1758485376.710,1,0,0,0,0.000,19.0231144,-97.9911045,2300.3,7547,53.8,143.6,7.4,-0.10,0.75,-1.16,0,0.00,0.0
39.761,1758485376.761,1,0,0,0,0.000,19.0231144,-97.9911045,2300.3,7547,53.8,143.6,7.4,-0.14,0.75,-1.16,0,0.00,0.0
39.811,1758485376.811,1,0,0,0,0.000,19.0231144,-97.9911045,2300.3,7547,53.8,143.6,7.4,-0.14,0.78,-1.08,0,0.00,0.0
39.861,1758485376.861,1,0,0,0,0.000,19.0231144,-97.9911045,2300.3,7547,53.8,143.6,7.4,-0.14,0.78,-1.06,0,0.00,0.0
39.911,1758485376.911,1,0,0,0,0.000,19.0231144,-97.9911045,2300.3,7547,53.8,143.6,7.4,-0.04,0.69,-1.06,0,0.00,0.0
39.961,1758485376.961,1,0,0,0,0.000,19.0231144,-97.9911045,2300.3,7547,53.8,143.6,7.4,-0.04,0.69,-1.14,0,0.00,0.0
40.010,1758485377.010,1,0,0,1,0.000,19.0230953,-97.9909216,2299.8,7545,55.4,113.0,9.2,-0.07,0.66,-1.20,0,0.00,0.0
40.062,1758485377.062,1,0,0,0,0.000,19.0230953,-97.9909216,2299.8,7545,55.4,113.0,9.2,-0.07,0.71,-1.20,0,0.00,0.0
40.112,1758485377.112,1,0,0,0,0.000,19.0230953,-97.9909216,2299.8,7545,55.4,113.0,9.2,-0.07,0.71,-1.06,0,0.00,0.0
40.162,1758485377.162,1,0,0,0,0.000,19.0230953,-97.9909216,2299.8,7545,55.4,113.0,9.2,-0.06,0.73,-1.04,0,0.00,0.0
40.212,1758485377.212,1,0,0,0,0.000,19.0230953,-97.9909216,2299.8,7545,55.4,113.0,9.2,-0.15,0.73,-1.04,0,0.00,0.0
40.263,1758485377.263,1,0,0,0,0.000,19.0230953,-97.9909216,2299.8,7545,55.4,113.0,9.2,-0.21,0.73,-1.10,0,0.00,0.0
40.313,1758485377.313,1,0,0,0,0.000,19.0230953,-97.9909216,2299.8,7545,55.4,113.0,9.2,-0.21,0.74,-1.11,0,0.00,0.0
40.363,1758485377.363,1,0,0,0,0.000,19.0230953,-97.9909216,2299.8,7545,55.4,113.0,9.2,-0.24,0.74,-1.11,0,0.00,0.0
40.413,1758485377.413,1,0,0,0,0.000,19.0230953,-97.9909216,2299.8,7545,55.4,113.0,9.2,-0.24,0.74,-1.05,0,0.00,0.0
40.463,1758485377.463,1,0,0,0,0.000,19.0230953,-97.9909216,2299.8,7545,55.4,113.0,9.2,-0.24,0.73,-1.05,0,0.00,0.0
40.514,1758485377.514,1,0,0,0,0.000,19.0230953,-97.9909216,2299.8,7545,55.4,113.0,9.2,-0.32,0.72,-1.04,0,0.00,0.0
40.564,1758485377.564,1,0,0,0,0.000,19.0230953,-97.9909216,2299.8,7545,55.4,113.0,9.2,-0.30,0.69,-1.03,0,0.00,0.0
40.614,1758485377.614,1,0,0,0,0.000,19.0230953,-97.9909216,2299.8,7545,55.4,113.0,9.2,-0.30,0.72,-1.03,0,0.00,0.0
40.664,1758485377.664,1,0,0,0,0.000,19.0230953,-97.9909216,2299.8,7545,55.4,113.0,9.2,-0.30,0.68,-1.03,0,0.00,0.0
40.715,1758485377.715,1,0,0,0,0.000,19.0230953,-97.9909216,2299.8,7545,55.4,113.0,9.2,-0.27,0.68,-1.00,0,0.00,0.0
40.765,1758485377.765,1,0,0,0,0.000,19.0230953,-97.9909216,2299.8,7545,55.4,113.0,9.2,-0.27,0.68,-1.00,0,0.00,0.0
40.815,1758485377.815,1,0,0,0,0.000,19.0230953,-97.9909216,2299.8,7545,55.4,113.0,9.2,-0.27,0.68,-1.00,0,0.00,0.0
40.865,1758485377.865,1,0,0,0,0.000,19.0230953,-97.9909216,2299.8,7545,55.4,113.0,9.2,-0.30,0.69,-0.98,0,0.00,0.0
40.916,1758485377.916,1,0,0,0,0.000,19.0230953,-97.9909216,2299.8,7545,55.4,113.0,9.2,-0.30,0.69,-0.98,0,0.00,0.0
40.966,1758485377.966,1,0,0,0,0.000,19.0230953,-97.9909216,2299.8,7545,55.4,113.0,9.2,-0.30,0.69,-0.98,0,0.00,0.0
41.011,1758485378.011,1,0,0,1,0.000,19.0231605,-97.9907365,2299.9,7546,58.3,85.4,7.4,-0.27,0.64,-0.98,0,0.00,0.0
41.066,1758485378.066,1,0,0,0,0.000,19.0231605,-97.9907365,2299.9,7546,58.3,85.4,7.4,-0.37,0.64,-1.01,0,0.00,0.0
41.116,1758485378.116,1,0,0,0,0.000,19.0231605,-97.9907365,2299.9,7546,58.3,85.4,7.4,-0.34,0.62,-0.98,0,0.00,0.0
41.166,1758485378.166,1,0,0,0,0.000,19.0231605,-97.9907365,2299.9,7546,58.3,85.4,7.4,-0.37,0.66,-0.97,0,0.00,0.0
41.217,1758485378.217,1,0,0,0,0.000,19.0231605,-97.9907365,2299.9,7546,58.3,85.4,7.4,-0.34,0.67,-0.90,0,0.00,0.0
41.267,1758485378.267,1,0,0,0,0.000,19.0231605,-97.9907365,2299.9,7546,58.3,85.4,7.4,-0.37,0.67,-0.90,0,0.00,0.0
41.317,1758485378.317,1,0,0,0,0.000,19.0231605,-97.9907365,2299.9,7546,58.3,85.4,7.4,-0.31,0.63,-0.93,0,0.00,0.0
41.367,1758485378.367,1,0,0,0,0.000,19.0231605,-97.9907365,2299.9,7546,58.3,85.4,7.4,-0.37,0.63,-0.98,0,0.00,0.0
41.418,1758485378.418,1,0,0,0,0.000,19.0231605,-97.9907365,2299.9,7546,58.3,85.4,7.4,-0.32,0.66,-0.98,0,0.00,0.0
41.468,1758485378.468,1,0,0,0,0.000,19.0231605,-97.9907365,2299.9,7546,58.3,85.4,7.4,-0.35,0.70,-0.98,0,0.00,0.0
41.518,1758485378.518,1,0,0,0,0.000,19.0231605,-97.9907365,2299.9,7546,58.3,85.4,7.4,-0.35,0.66,-0.98,0,0.00,0.0
41.568,1758485378.568,1,0,0,0,0.000,19.0231605,-97.9907365,2299.9,7546,58.3,85.4,7.4,-0.35,0.68,-0.91,0,0.00,0.0
41.618,1758485378.618,1,0,0,0,0.000,19.0231605,-97.9907365,2299.9,7546,58.3,85.4,7.4,-0.35,0.67,-0.92,0,0.00,0.0
41.669,1758485378.669,1,0,0,0,0.000,19.0231605,-97.9907365,2299.9,7546,58.3,85.4,7.4,-0.35,0.67,-0.92,0,0.00,0.0
41.719,1758485378.719,1,0,0,0,0.000,19.0231605,-97.9907365,2299.9,7546,58.3,85.4,7.4,-0.33,0.67,-1.00,0,0.00,0.0
41.769,1758485378.769,1,0,0,0,0.000,19.0231605,-97.9907365,2299.9,7546,58.3,85.4,7.4,-0.35,0.64,-1.00,0,0.00,0.0
41.819,1758485378.819,1,0,0,0,0.000,19.0231605,-97.9907365,2299.9,7546,58.3,85.4,7.4,-0.33,0.64,-0.96,0,0.00,0.0
41.869,1758485378.869,1,0,0,0,0.000,19.0231605,-97.9907365,2299.9,7546,58.3,85.4,7.4,-0.31,0.64,-0.95,0,0.00,0.0
41.920,1758485378.920,1,0,0,0,0.000,19.0231605,-97.9907365,2299.9,7546,58.3,85.4,7.4,-0.30,0.67,-0.91,0,0.00,0.0
41.970,1758485378.970,1,0,0,0,0.000,19.0231605,-97.9907365,2299.9,7546,58.3,85.4,7.4,-0.30,0.67,-0.91,0,0.00,0.0
42.007,1758485379.007,1,0,0,1,0.000,19.0232792,-97.9905460,2299.5,7544,68.3,67.7,7.4,-0.30,0.65,-0.96,0,0.00,0.0
42.060,1758485379.060,1,0,0,0,0.000,19.0232792,-97.9905460,2299.5,7544,68.3,67.7,7.4,-0.29,0.65,-0.98,0,0.00,0.0
42.110,1758485379.110,1,0,0,0,0.000,19.0232792,-97.9905460,2299.5,7544,68.3,67.7,7.4,-0.33,0.66,-1.00,0,0.00,0.0
42.161,1758485379.161,1,0,0,0,0.000,19.0232792,-97.9905460,2299.5,7544,68.3,67.7,7.4,-0.29,0.66,-0.98,0,0.00,0.0
42.211,1758485379.211,1,0,0,0,0.000,19.0232792,-97.9905460,2299.5,7544,68.3,67.7,7.4,-0.27,0.72,-0.97,0,0.00,0.0
42.261,1758485379.261,1,0,0,0,0.000,19.0232792,-97.9905460,2299.5,7544,68.3,67.7,7.4,-0.27,0.72,-0.97,0,0.00,0.0
42.311,1758485379.311,1,0,0,0,0.000,19.0232792,-97.9905460,2299.5,7544,68.3,67.7,7.4,-0.26,0.74,-0.97,0,0.00,0.0
42.362,1758485379.362,1,0,0,0,0.000,19.0232792,-97.9905460,2299.5,7544,68.3,67.7,7.4,-0.27,0.74,-1.00,0,0.00,0.0
42.412,1758485379.412,1,0,0,0,0.000,19.0232792,-97.9905460,2299.5,7544,68.3,67.7,7.4,-0.28,0.74,-1.03,0,0.00,0.0
42.462,1758485379.462,1,0,0,0,0.000,19.0232792,-97.9905460,2299.5,7544,68.3,67.7,7.4,-0.28,0.71,-1.04,0,0.00,0.0
42.512,1758485379.512,1,0,0,0,0.000,19.0232792,-97.9905460,2299.5,7544,68.3,67.7,7.4,-0.25,0.70,-1.04,0,0.00,0.0
42.562,1758485379.562,1,0,0,0,0.000,19.0232792,-97.9905460,2299.5,7544,68.3,67.7,7.4,-0.13,0.70,-0.94,0,0.00,0.0
42.613,1758485379.613,1,0,0,0,0.000,19.0232792,-97.9905460,2299.5,7544,68.3,67.7,7.4,-0.13,0.70,-0.90,0,0.00,0.0
42.663,1758485379.663,1,0,0,0,0.000,19.0232792,-97.9905460,2299.5,7544,68.3,67.7,7.4,-0.13,0.71,-0.90,0,0.00,0.0
42.713,1758485379.713,1,0,0,0,0.000,19.0232792,-97.9905460,2299.5,7544,68.3,67.7,7.4,-0.13,0.71,-0.93,0,0.00,0.0
42.763,1758485379.763,1,0,0,0,0.000,19.0232792,-97.9905460,2299.5,7544,68.3,67.7,7.4,-0.17,0.73,-0.97,0,0.00,0.0
42.814,1758485379.814,1,0,0,0,0.000,19.0232792,-97.9905460,2299.5,7544,68.3,67.7,7.4,-0.17,0.73,-0.97,0,0.00,0.0
42.864,1758485379.864,1,0,0,0,0.000,19.0232792,-97.9905460,2299.5,7544,68.3,67.7,7.4,-0.19,0.73,-0.97,0,0.00,0.0
42.914,1758485379.914,1,0,0,0,0.000,19.0232792,-97.9905460,2299.5,7544,68.3,67.7,7.4,0.05,0.72,-0.92,0,0.00,0.0
42.964,1758485379.964,1,0,0,0,0.000,19.0232792,-97.9905460,2299.5,7544,68.3,67.7,7.4,-0.14,0.85,-0.88,0,0.00,0.0
43.009,1758485380.009,1,0,0,1,0.000,19.0234067,-97.9903268,2299.1,7543,80.3,62.7,8.6,0.00,0.72,-0.88,0,0.00,0.0
43.065,1758485380.065,1,0,0,0,0.000,19.0234067,-97.9903268,2299.1,7543,80.3,62.7,8.6,0.00,0.78,-0.88,0,0.00,0.0
43.115,1758485380.115,1,0,0,0,0.000,19.0234067,-97.9903268,2299.1,7543,80.3,62.7,8.6,0.00,0.78,-0.92,0,0.00,0.0
43.165,1758485380.165,1,0,0,0,0.000,19.0234067,-97.9903268,2299.1,7543,80.3,62.7,8.6,0.04,0.78,-0.89,0,0.00,0.0
43.215,1758485380.215,1,0,0,0,0.000,19.0234067,-97.9903268,2299.1,7543,80.3,62.7,8.6,-0.00,0.82,-0.89,0,0.00,0.0
43.265,1758485380.265,1,0,0,0,0.000,19.0234067,-97.9903268,2299.1,7543,80.3,62.7,8.6,-0.00,0.73,-0.89,0,0.00,0.0
43.316,1758485380.316,1,0,0,0,0.000,19.0234067,-97.9903268,2299.1,7543,80.3,62.7,8.6,-0.02,0.75,-0.99,0,0.00,0.0
43.366,1758485380.366,1,0,0,0,0.000,19.0234067,-97.9903268,2299.1,7543,80.3,62.7,8.6,-0.02,0.75,-0.99,0,0.00,0.0
43.416,1758485380.416,1,0,0,0,0.000,19.0234067,-97.9903268,2299.1,7543,80.3,62.7,8.6,0.01,0.80,-0.87,0,0.00,0.0
43.466,1758485380.466,1,0,0,0,0.000,19.0234067,-97.9903268,2299.1,7543,80.3,62.7,8.6,0.03,0.81,-0.86,0,0.00,0.0
43.516,1758485380.516,1,0,0,0,0.000,19.0234067,-97.9903268,2299.1,7543,80.3,62.7,8.6,0.01,0.91,-0.86,0,0.00,0.0
43.567,1758485380.567,1,0,0,0,0.000,19.0234067,-97.9903268,2299.1,7543,80.3,62.7,8.6,-0.02,0.91,-0.96,0,0.00,0.0
43.617,1758485380.617,1,0,0,0,0.000,19.0234067,-97.9903268,2299.1,7543,80.3,62.7,8.6,-0.04,0.76,-0.99,0,0.00,0.0
43.667,1758485380.667,1,0,0,0,0.000,19.0234067,-97.9903268,2299.1,7543,80.3,62.7,8.6,-0.02,0.74,-0.99,0,0.00,0.0
43.717,1758485380.717,1,0,0,0,0.000,19.0234067,-97.9903268,2299.1,7543,80.3,62.7,8.6,-0.01,0.75,-0.94,0,0.00,0.0
43.768,1758485380.768,1,0,0,0,0.000,19.0234067,-97.9903268,2299.1,7543,80.3,62.7,8.6,0.05,0.75,-0.77,0,0.00,0.0
43.818,1758485380.818,1,0,0,0,0.000,19.0234067,-97.9903268,2299.1,7543,80.3,62.7,8.6,0.05,0.89,-0.77,0,0.00,0.0
43.868,1758485380.868,1,0,0,0,0.000,19.0234067,-97.9903268,2299.1,7543,80.3,62.7,8.6,0.05,0.90,-0.91,0,0.00,0.0
43.918,1758485380.918,1,0,0,0,0.000,19.0234067,-97.9903268,2299.1,7543,80.3,62.7,8.6,0.01,0.90,-1.01,0,0.00,0.0
43.968,1758485380.968,1,0,0,0,0.000,19.0234067,-97.9903268,2299.1,7543,80.3,62.7,8.6,0.11,0.85,-1.01,0,0.00,0.0
44.010,1758485381.010,1,0,0,1,0.000,19.0235558,-97.9900978,2299.2,7543,91.6,59.0,8.4,0.08,0.82,-0.97,0,0.00,0.0
44.059,1758485381.059,1,0,0,0,0.000,19.0235558,-97.9900978,2299.2,7543,91.6,59.0,8.4,0.08,0.82,-0.97,0,0.00,0.0
44.109,1758485381.109,1,0,0,0,0.000,19.0235558,-97.9900978,2299.2,7543,91.6,59.0,8.4,0.08,0.81,-0.94,0,0.00,0.0
44.159,1758485381.159,1,0,0,0,0.000,19.0235558,-97.9900978,2299.2,7543,91.6,59.0,8.4,0.00,0.79,-0.92,0,0.00,0.0
44.209,1758485381.209,1,0,0,0,0.000,19.0235558,-97.9900978,2299.2,7543,91.6,59.0,8.4,0.11,0.78,-0.92,0,0.00,0.0
44.260,1758485381.260,1,0,0,0,0.000,19.0235558,-97.9900978,2299.2,7543,91.6,59.0,8.4,0.11,0.79,-0.89,0,0.00,0.0
44.310,1758485381.310,1,0,0,0,0.000,19.0235558,-97.9900978,2299.2,7543,91.6,59.0,8.4,0.15,0.81,-0.86,0,0.00,0.0
44.360,1758485381.360,1,0,0,0,0.000,19.0235558,-97.9900978,2299.2,7543,91.6,59.0,8.4,0.18,0.82,-0.86,0,0.00,0.0
44.410,1758485381.410,1,0,0,0,0.000,19.0235558,-97.9900978,2299.2,7543,91.6,59.0,8.4,0.18,0.83,-0.84,0,0.00,0.0
44.460,1758485381.460,1,0,0,0,0.000,19.0235558,-97.9900978,2299.2,7543,91.6,59.0,8.4,0.19,0.85,-0.82,0,0.00,0.0
44.511,1758485381.511,1,0,0,0,0.000,19.0235558,-97.9900978,2299.2,7543,91.6,59.0,8.4,0.16,0.86,-0.82,0,0.00,0.0
44.561,1758485381.561,1,0,0,0,0.000,19.0235558,-97.9900978,2299.2,7543,91.6,59.0,8.4,0.19,0.86,-0.83,0,0.00,0.0
44.611,1758485381.611,1,0,0,0,0.000,19.0235558,-97.9900978,2299.2,7543,91.6,59.0,8.4,0.14,0.90,-0.87,0,0.00,0.0
44.661,1758485381.661,1,0,0,0,0.000,19.0235558,-97.9900978,2299.2,7543,91.6,59.0,8.4,0.16,0.86,-0.94,0,0.00,0.0
44.712,1758485381.712,1,0,0,0,0.000,19.0235558,-97.9900978,2299.2,7543,91.6,59.0,8.4,0.14,0.89,-0.94,0,0.00,0.0
44.762,1758485381.762,1,0,0,0,0.000,19.0235558,-97.9900978,2299.2,7543,91.6,59.0,8.4,0.15,0.74,-0.90,0,0.00,0.0
44.812,1758485381.812,1,0,0,0,0.000,19.0235558,-97.9900978,2299.2,7543,91.6,59.0,8.4,0.15,0.76,-0.88,0,0.00,0.0
44.862,1758485381.862,1,0,0,0,0.000,19.0235558,-97.9900978,2299.2,7543,91.6,59.0,8.4,0.15,0.76,-0.88,0,0.00,0.0
44.912,1758485381.912,1,0,0,0,0.000,19.0235558,-97.9900978,2299.2,7543,91.6,59.0,8.4,0.25,0.80,-0.93,1,0.00,0.0
44.963,1758485381.963,1,0,0,0,0.000,19.0235558,-97.9900978,2299.2,7543,91.6,59.0,8.4,0.19,0.90,-0.94,0,0.00,0.0
45.013,1758485382.013,1,0,0,0,0.000,19.0235558,-97.9900978,2299.2,7543,91.6,59.0,8.4,0.19,0.90,-0.97,0,0.00,0.0
45.013,1758485382.013,1,0,0,1,0.000,19.0237468,-97.9899148,2299.0,7543,94.7,49.2,10.3,0.19,0.90,-0.97,0,0.00,0.0
45.063,1758485382.063,1,0,0,0,0.000,19.0237468,-97.9899148,2299.0,7543,94.7,49.2,10.3,0.15,0.90,-0.97,0,0.00,0.0
45.113,1758485382.113,1,0,0,0,0.000,19.0237468,-97.9899148,2299.0,7543,94.7,49.2,10.3,0.12,0.95,-0.97,0,0.00,0.0
45.164,1758485382.164,1,0,0,0,0.000,19.0237468,-97.9899148,2299.0,7543,94.7,49.2,10.3,0.10,0.86,-0.97,0,0.00,0.0
45.214,1758485382.214,1,0,0,0,0.000,19.0237468,-97.9899148,2299.0,7543,94.7,49.2,10.3,0.08,0.80,-0.99,0,0.00,0.0
45.264,1758485382.264,1,0,0,0,0.000,19.0237468,-97.9899148,2299.0,7543,94.7,49.2,10.3,0.10,0.78,-0.99,0,0.00,0.0
45.314,1758485382.314,1,0,0,0,0.000,19.0237468,-97.9899148,2299.0,7543,94.7,49.2,10.3,0.11,0.71,-0.98,0,0.00,0.0
45.364,1758485382.364,1,0,0,0,0.000,19.0237468,-97.9899148,2299.0,7543,94.7,49.2,10.3,0.11,0.71,-0.89,0,0.00,0.0
45.415,1758485382.415,1,0,0,0,0.000,19.0237468,-97.9899148,2299.0,7543,94.7,49.2,10.3,0.11,0.83,-0.83,0,0.00,0.0
45.465,1758485382.465,1,0,0,0,0.000,19.0237468,-97.9899148,2299.0,7543,94.7,49.2,10.3,0.04,0.85,-0.83,0,0.00,0.0
45.515,1758485382.515,1,0,0,0,0.000,19.0237468,-97.9899148,2299.0,7543,94.7,49.2,10.3,0.12,0.86,-0.96,0,0.00,0.0
45.565,1758485382.565,1,0,0,0,0.000,19.0237468,-97.9899148,2299.0,7543,94.7,49.2,10.3,0.12,0.86,-0.96,0,0.00,0.0
45.615,1758485382.615,1,0,0,0,0.000,19.0237468,-97.9899148,2299.0,7543,94.7,49.2,10.3,0.12,0.86,-1.00,0,0.00,0.0
45.665,1758485382.665,1,0,0,0,0.000,19.0237468,-97.9899148,2299.0,7543,94.7,49.2,10.3,0.08,0.84,-0.96,0,0.00,0.0
45.716,1758485382.716,1,0,0,0,0.000,19.0237468,-97.9899148,2299.0,7543,94.7,49.2,10.3,0.06,0.84,-0.93,0,0.00,0.0
45.766,1758485382.766,1,0,0,0,0.000,19.0237468,-97.9899148,2299.0,7543,94.7,49.2,10.3,0.06,0.84,-0.93,0,0.00,0.0
45.816,1758485382.816,1,0,0,0,0.000,19.0237468,-97.9899148,2299.0,7543,94.7,49.2,10.3,0.06,0.82,-0.92,0,0.00,0.0
45.866,1758485382.866,1,0,0,0,0.000,19.0237468,-97.9899148,2299.0,7543,94.7,49.2,10.3,0.06,0.82,-0.93,0,0.00,0.0
45.917,1758485382.917,1,0,0,0,0.000,19.0237468,-97.9899148,2299.0,7543,94.7,49.2,10.3,0.08,0.82,-0.93,0,0.00,0.0
45.967,1758485382.967,1,0,0,0,0.000,19.0237468,-97.9899148,2299.0,7543,94.7,49.2,10.3,0.06,0.81,-0.96,0,0.00,0.0
46.011,1758485383.011,1,0,0,1,0.000,19.0239698,-97.9897932,2299.3,7544,94.0,36.5,8.5,0.08,0.80,-0.96,0,0.00,0.0
46.057,1758485383.057,1,0,0,0,0.000,19.0239698,-97.9897932,2299.3,7544,94.0,36.5,8.5,0.07,0.80,-0.93,0,0.00,0.0
46.107,1758485383.107,1,0,0,0,0.000,19.0239698,-97.9897932,2299.3,7544,94.0,36.5,8.5,0.08,0.80,-0.91,0,0.00,0.0
46.158,1758485383.158,1,0,0,0,0.000,19.0239698,-97.9897932,2299.3,7544,94.0,36.5,8.5,0.08,0.77,-0.91,0,0.00,0.0
46.208,1758485383.208,1,0,0,0,0.000,19.0239698,-97.9897932,2299.3,7544,94.0,36.5,8.5,0.08,0.77,-0.91,0,0.00,0.0
46.258,1758485383.258,1,0,0,0,0.000,19.0239698,-97.9897932,2299.3,7544,94.0,36.5,8.5,0.11,0.78,-0.91,0,0.00,0.0
46.308,1758485383.308,1,0,0,0,0.000,19.0239698,-97.9897932,2299.3,7544,94.0,36.5,8.5,0.05,0.80,-0.94,0,0.00,0.0
46.359,1758485383.359,1,0,0,0,0.000,19.0239698,-97.9897932,2299.3,7544,94.0,36.5,8.5,0.05,0.80,-0.94,0,0.00,0.0
46.409,1758485383.409,1,0,0,0,0.000,19.0239698,-97.9897932,2299.3,7544,94.0,36.5,8.5,0.05,0.82,-0.94,0,0.00,0.0
46.459,1758485383.459,1,0,0,0,0.000,19.0239698,-97.9897932,2299.3,7544,94.0,36.5,8.5,0.05,0.84,-0.91,0,0.00,0.0
46.509,1758485383.509,1,0,0,0,0.000,19.0239698,-97.9897932,2299.3,7544,94.0,36.5,8.5,0.16,0.84,-0.91,0,0.00,0.0
46.559,1758485383.559,1,0,0,0,0.000,19.0239698,-97.9897932,2299.3,7544,94.0,36.5,8.5,0.05,0.85,-0.89,0,0.00,0.0
46.610,1758485383.610,1,0,0,0,0.000,19.0239698,-97.9897932,2299.3,7544,94.0,36.5,8.5,0.12,0.81,-0.90,0,0.00,0.0
46.660,1758485383.660,1,0,0,0,0.000,19.0239698,-97.9897932,2299.3,7544,94.0,36.5,8.5,-0.04,0.89,-0.90,0,0.00,0.0
46.710,1758485383.710,1,0,0,0,0.000,19.0239698,-97.9897932,2299.3,7544,94.0,36.5,8.5,0.12,0.81,-0.92,0,0.00,0.0
46.761,1758485383.761,1,0,0,0,0.000,19.0239698,-97.9897932,2299.3,7544,94.0,36.5,8.5,0.06,0.81,-0.92,0,0.00,0.0
46.810,1758485383.810,1,0,0,0,0.000,19.0239698,-97.9897932,2299.3,7544,94.0,36.5,8.5,0.06,0.81,-0.90,0,0.00,0.0
46.861,1758485383.861,1,0,0,0,0.000,19.0239698,-97.9897932,2299.3,7544,94.0,36.5,8.5,0.06,0.81,-0.90,0,0.00,0.0
46.911,1758485383.911,1,0,0,0,0.000,19.0239698,-97.9897932,2299.3,7544,94.0,36.5,8.5,0.03,0.84,-0.87,0,0.00,0.0
46.961,1758485383.961,1,0,0,0,0.000,19.0239698,-97.9897932,2299.3,7544,94.0,36.5,8.5,0.15,0.80,-0.85,0,0.00,0.0
47.011,1758485384.011,1,0,0,0,0.000,19.0239698,-97.9897932,2299.3,7544,94.0,36.5,8.5,0.00,0.85,-0.87,0,0.00,0.0
47.015,1758485384.015,1,0,0,1,0.000,19.0242107,-97.9897567,2299.1,7543,91.0,21.0,6.5,0.00,0.85,-0.87,0,0.00,0.0
47.062,1758485384.062,1,0,0,0,0.000,19.0242107,-97.9897567,2299.1,7543,91.0,21.0,6.5,0.00,0.85,-0.92,0,0.00,0.0
47.112,1758485384.112,1,0,0,0,0.000,19.0242107,-97.9897567,2299.1,7543,91.0,21.0,6.5,0.00,0.85,-0.95,0,0.00,0.0
47.162,1758485384.162,1,0,0,0,0.000,19.0242107,-97.9897567,2299.1,7543,91.0,21.0,6.5,0.00,0.86,-0.95,0,0.00,0.0
47.212,1758485384.212,1,0,0,0,0.000,19.0242107,-97.9897567,2299.1,7543,91.0,21.0,6.5,0.06,0.79,-0.95,0,0.00,0.0
47.262,1758485384.262,1,0,0,0,0.000,19.0242107,-97.9897567,2299.1,7543,91.0,21.0,6.5,0.06,0.74,-0.92,0,0.00,0.0
47.313,1758485384.313,1,0,0,0,0.000,19.0242107,-97.9897567,2299.1,7543,91.0,21.0,6.5,0.06,0.74,-0.89,0,0.00,0.0
47.363,1758485384.363,1,0,0,0,0.000,19.0242107,-97.9897567,2299.1,7543,91.0,21.0,6.5,0.11,0.78,-0.86,0,0.00,0.0
47.413,1758485384.413,1,0,0,0,0.000,19.0242107,-97.9897567,2299.1,7543,91.0,21.0,6.5,0.06,0.87,-0.86,0,0.00,0.0
47.463,1758485384.463,1,0,0,0,0.000,19.0242107,-97.9897567,2299.1,7543,91.0,21.0,6.5,-0.01,0.79,-0.94,0,0.00,0.0
47.514,1758485384.514,1,0,0,0,0.000,19.0242107,-97.9897567,2299.1,7543,91.0,21.0,6.5,-0.01,0.79,-0.95,0,0.00,0.0
47.564,1758485384.564,1,0,0,0,0.000,19.0242107,-97.9897567,2299.1,7543,91.0,21.0,6.5,-0.02,0.79,-0.95,0,0.00,0.0
47.614,1758485384.614,1,0,0,0,0.000,19.0242107,-97.9897567,2299.1,7543,91.0,21.0,6.5,0.11,0.78,-0.87,0,0.00,0.0
47.664,1758485384.664,1,0,0,0,0.000,19.0242107,-97.9897567,2299.1,7543,91.0,21.0,6.5,-0.04,0.90,-0.87,0,0.00,0.0
47.714,1758485384.714,1,0,0,0,0.000,19.0242107,-97.9897567,2299.1,7543,91.0,21.0,6.5,0.08,0.81,-0.87,0,0.00,0.0
47.764,1758485384.764,1,0,0,0,0.000,19.0242107,-97.9897567,2299.1,7543,91.0,21.0,6.5,0.08,0.81,-0.94,0,0.00,0.0
47.815,1758485384.815,1,0,0,0,0.000,19.0242107,-97.9897567,2299.1,7543,91.0,21.0,6.5,0.12,0.81,-0.94,0,0.00,0.0
47.865,1758485384.865,1,0,0,0,0.000,19.0242107,-97.9897567,2299.1,7543,91.0,21.0,6.5,0.12,0.94,-0.92,0,0.00,0.0
47.915,1758485384.915,1,0,0,0,0.000,19.0242107,-97.9897567,2299.1,7543,91.0,21.0,6.5,0.05,0.94,-0.92,0,0.00,0.0
47.965,1758485384.965,1,0,0,0,0.000,19.0242107,-97.9897567,2299.1,7543,91.0,21.0,6.5,0.05,0.84,-0.96,0,0.00,0.0
48.013,1758485385.013,1,0,0,1,0.000,19.0244555,-97.9897798,2298.8,7542,90.3,6.7,7.5,0.02,0.81,-0.97,0,0.00,0.0
48.066,1758485385.066,1,0,0,0,0.000,19.0244555,-97.9897798,2298.8,7542,90.3,6.7,7.5,0.06,0.81,-0.97,0,0.00,0.0
48.116,1758485385.116,1,0,0,0,0.000,19.0244555,-97.9897798,2298.8,7542,90.3,6.7,7.5,0.06,0.78,-0.93,0,0.00,0.0
48.166,1758485385.166,1,0,0,0,0.000,19.0244555,-97.9897798,2298.8,7542,90.3,6.7,7.5,0.06,0.78,-0.93,0,0.00,0.0
48.216,1758485385.216,1,0,0,0,0.000,19.0244555,-97.9897798,2298.8,7542,90.3,6.7,7.5,0.23,0.74,-0.93,1,0.00,0.0
48.267,1758485385.267,1,0,0,0,0.000,19.0244555,-97.9897798,2298.8,7542,90.3,6.7,7.5,0.08,0.82,-0.93,0,0.00,0.0
48.317,1758485385.317,1,0,0,0,0.000,19.0244555,-97.9897798,2298.8,7542,90.3,6.7,7.5,0.20,0.88,-0.95,0,0.00,0.0
48.367,1758485385.367,1,0,0,0,0.000,19.0244555,-97.9897798,2298.8,7542,90.3,6.7,7.5,0.20,0.90,-0.96,0,0.00,0.0
48.417,1758485385.417,1,0,0,0,0.000,19.0244555,-97.9897798,2298.8,7542,90.3,6.7,7.5,0.20,0.94,-0.99,0,0.00,0.0
48.467,1758485385.467,1,0,0,0,0.000,19.0244555,-97.9897798,2298.8,7542,90.3,6.7,7.5,0.18,0.95,-1.05,0,0.00,0.0
48.518,1758485385.518,1,0,0,0,0.000,19.0244555,-97.9897798,2298.8,7542,90.3,6.7,7.5,0.11,0.94,-1.09,0,0.00,0.0
48.568,1758485385.568,1,0,0,0,0.000,19.0244555,-97.9897798,2298.8,7542,90.3,6.7,7.5,0.11,0.93,-1.09,0,0.00,0.0
48.618,1758485385.618,1,0,0,0,0.000,19.0244555,-97.9897798,2298.8,7542,90.3,6.7,7.5,0.07,0.85,-1.00,0,0.00,0.0
48.668,1758485385.668,1,0,0,0,0.000,19.0244555,-97.9897798,2298.8,7542,90.3,6.7,7.5,0.14,0.90,-0.96,0,0.00,0.0
48.719,1758485385.719,1,0,0,0,0.000,19.0244555,-97.9897798,2298.8,7542,90.3,6.7,7.5,0.16,0.83,-0.99,0,0.00,0.0
48.769,1758485385.769,1,0,0,0,0.000,19.0244555,-97.9897798,2298.8,7542,90.3,6.7,7.5,0.16,0.83,-0.99,0,0.00,0.0
48.819,1758485385.819,1,0,0,0,0.000,19.0244555,-97.9897798,2298.8,7542,90.3,6.7,7.5,0.19,0.81,-1.04,0,0.00,0.0
48.869,1758485385.869,1,0,0,0,0.000,19.0244555,-97.9897798,2298.8,7542,90.3,6.7,7.5,0.15,0.81,-1.04,0,0.00,0.0
48.919,1758485385.919,1,0,0,0,0.000,19.0244555,-97.9897798,2298.8,7542,90.3,6.7,7.5,0.21,0.86,-1.02,1,0.00,0.0
48.970,1758485385.970,1,0,0,0,0.000,19.0244555,-97.9897798,2298.8,7542,90.3,6.7,7.5,0.15,0.89,-1.00,0,0.00,0.0
49.015,1758485386.015,1,0,0,1,0.000,19.0246883,-97.9898651,2298.5,7541,89.2,353.0,6.2,0.26,0.89,-1.00,1,0.00,0.0
49.070,1758485386.070,1,0,0,0,0.000,19.0246883,-97.9898651,2298.5,7541,89.2,353.0,6.2,0.11,0.89,-1.01,0,0.00,0.0
49.120,1758485386.120,1,0,0,0,0.000,19.0246883,-97.9898651,2298.5,7541,89.2,353.0,6.2,0.11,0.89,-1.02,0,0.00,0.0
49.170,1758485386.170,1,0,0,0,0.000,19.0246883,-97.9898651,2298.5,7541,89.2,353.0,6.2,0.11,0.90,-1.02,0,0.00,0.0
49.221,1758485386.221,1,0,0,0,0.000,19.0246883,-97.9898651,2298.5,7541,89.2,353.0,6.2,0.12,0.90,-1.01,0,0.00,0.0
49.271,1758485386.271,1,0,0,0,0.000,19.0246883,-97.9898651,2298.5,7541,89.2,353.0,6.2,0.14,0.90,-1.01,0,0.00,0.0
49.321,1758485386.321,1,0,0,0,0.000,19.0246883,-97.9898651,2298.5,7541,89.2,353.0,6.2,0.14,0.87,-1.01,0,0.00,0.0
49.371,1758485386.371,1,0,0,0,0.000,19.0246883,-97.9898651,2298.5,7541,89.2,353.0,6.2,0.14,0.90,-1.01,0,0.00,0.0
49.422,1758485386.422,1,0,0,0,0.000,19.0246883,-97.9898651,2298.5,7541,89.2,353.0,6.2,0.15,0.92,-1.01,0,0.00,0.0
49.472,1758485386.472,1,0,0,0,0.000,19.0246883,-97.9898651,2298.5,7541,89.2,353.0,6.2,0.15,0.93,-0.98,0,0.00,0.0
49.522,1758485386.522,1,0,0,0,0.000,19.0246883,-97.9898651,2298.5,7541,89.2,353.0,6.2,0.15,0.93,-0.98,0,0.00,0.0
49.572,1758485386.572,1,0,0,0,0.000,19.0246883,-97.9898651,2298.5,7541,89.2,353.0,6.2,0.13,0.87,-1.04,0,0.00,0.0
49.622,1758485386.622,1,0,0,0,0.000,19.0246883,-97.9898651,2298.5,7541,89.2,353.0,6.2,0.13,0.87,-1.04,0,0.00,0.0
49.673,1758485386.673,1,0,0,0,0.000,19.0246883,-97.9898651,2298.5,7541,89.2,353.0,6.2,0.13,0.82,-0.98,0,0.00,0.0
49.723,1758485386.723,1,0,0,0,0.000,19.0246883,-97.9898651,2298.5,7541,89.2,353.0,6.2,0.10,0.82,-0.97,0,0.00,0.0
49.773,1758485386.773,1,0,0,0,0.000,19.0246883,-97.9898651,2298.5,7541,89.2,353.0,6.2,0.10,0.81,-0.97,0,0.00,0.0
49.823,1758485386.823,1,0,0,0,0.000,19.0246883,-97.9898651,2298.5,7541,89.2,353.0,6.2,0.10,0.78,-0.94,0,0.00,0.0
49.873,1758485386.873,1,0,0,0,0.000,19.0246883,-97.9898651,2298.5,7541,89.2,353.0,6.2,0.06,0.81,-0.93,0,0.00,0.0
49.924,1758485386.924,1,0,0,0,0.000,19.0246883,-97.9898651,2298.5,7541,89.2,353.0,6.2,0.06,0.78,-0.93,0,0.00,0.0
49.974,1758485386.974,1,0,0,0,0.000,19.0246883,-97.9898651,2298.5,7541,89.2,353.0,6.2,0.06,0.78,-0.93,0,0.00,0.0
50.012,1758485387.012,1,0,0,1,0.000,19.0248864,-97.9900107,2298.1,7540,88.1,337.3,6.5,0.06,0.77,-0.93,0,0.00,0.0
50.064,1758485387.064,1,0,0,0,0.000,19.0248864,-97.9900107,2298.1,7540,88.1,337.3,6.5,-0.07,0.75,-0.91,0,0.00,0.0
50.115,1758485387.115,1,0,0,0,0.000,19.0248864,-97.9900107,2298.1,7540,88.1,337.3,6.5,-0.03,0.75,-0.90,0,0.00,0.0
50.165,1758485387.165,1,0,0,0,0.000,19.0248864,-97.9900107,2298.1,7540,88.1,337.3,6.5,-0.11,0.75,-0.80,0,0.00,0.0
50.215,1758485387.215,1,0,0,0,0.000,19.0248864,-97.9900107,2298.1,7540,88.1,337.3,6.5,-0.14,0.75,-0.79,0,0.00,0.0
50.265,1758485387.265,1,0,0,0,0.000,19.0248864,-97.9900107,2298.1,7540,88.1,337.3,6.5,-0.14,0.68,-0.77,0,0.00,0.0
50.315,1758485387.315,1,0,0,0,0.000,19.0248864,-97.9900107,2298.1,7540,88.1,337.3,6.5,-0.21,0.71,-0.77,0,0.00,0.0
50.366,1758485387.366,1,0,0,0,0.000,19.0248864,-97.9900107,2298.1,7540,88.1,337.3,6.5,-0.15,0.67,-0.74,0,0.00,0.0
50.416,1758485387.416,1,0,0,0,0.000,19.0248864,-97.9900107,2298.1,7540,88.1,337.3,6.5,-0.26,0.71,-0.74,0,0.00,0.0
50.466,1758485387.466,1,0,0,0,0.000,19.0248864,-97.9900107,2298.1,7540,88.1,337.3,6.5,-0.20,0.64,-0.69,0,0.00,0.0
50.516,1758485387.516,1,0,0,0,0.000,19.0248864,-97.9900107,2298.1,7540,88.1,337.3,6.5,-0.28,0.68,-0.68,0,0.00,0.0
50.566,1758485387.566,1,0,0,0,0.000,19.0248864,-97.9900107,2298.1,7540,88.1,337.3,6.5,-0.20,0.65,-0.66,0,0.00,0.0
50.617,1758485387.617,1,0,0,0,0.000,19.0248864,-97.9900107,2298.1,7540,88.1,337.3,6.5,-0.31,0.68,-0.65,0,0.00,0.0
50.667,1758485387.667,1,0,0,0,0.000,19.0248864,-97.9900107,2298.1,7540,88.1,337.3,6.5,-0.20,0.65,-0.65,0,0.00,0.0
50.717,1758485387.717,1,0,0,0,0.000,19.0248864,-97.9900107,2298.1,7540,88.1,337.3,6.5,-0.32,0.69,-0.63,0,0.00,0.0
50.767,1758485387.767,1,0,0,0,0.000,19.0248864,-97.9900107,2298.1,7540,88.1,337.3,6.5,-0.25,0.63,-0.63,0,0.00,0.0
50.818,1758485387.818,1,0,0,0,0.000,19.0248864,-97.9900107,2298.1,7540,88.1,337.3,6.5,-0.35,0.67,-0.63,0,0.00,0.0
50.868,1758485387.868,1,0,0,0,0.000,19.0248864,-97.9900107,2298.1,7540,88.1,337.3,6.5,-0.28,0.57,-0.63,0,0.00,0.0
50.918,1758485387.918,1,0,0,0,0.000,19.0248864,-97.9900107,2298.1,7540,88.1,337.3,6.5,-0.35,0.62,-0.63,0,0.00,0.0
50.968,1758485387.968,1,0,0,0,0.000,19.0248864,-97.9900107,2298.1,7540,88.1,337.3,6.5,-0.32,0.53,-0.55,0,0.00,0.0
51.015,1758485388.015,1,0,0,1,0.000,19.0250235,-97.9902316,2298.5,7541,87.5,318.2,6.3,-0.38,0.60,-0.47,0,0.00,0.0
51.069,1758485388.069,1,0,0,0,0.000,19.0250235,-97.9902316,2298.5,7541,87.5,318.2,6.3,-0.41,0.53,-0.43,0,0.00,0.0
51.119,1758485388.119,1,0,0,0,0.000,19.0250235,-97.9902316,2298.5,7541,87.5,318.2,6.3,-0.42,0.52,-0.43,0,0.00,0.0
51.169,1758485388.169,1,0,0,0,0.000,19.0250235,-97.9902316,2298.5,7541,87.5,318.2,6.3,-0.45,0.51,-0.43,0,0.00,0.0
51.219,1758485388.219,1,0,0,0,0.000,19.0250235,-97.9902316,2298.5,7541,87.5,318.2,6.3,-0.48,0.50,-0.41,0,0.00,0.0
51.269,1758485388.269,1,0,0,0,0.000,19.0250235,-97.9902316,2298.5,7541,87.5,318.2,6.3,-0.48,0.45,-0.37,0,0.00,0.0
51.320,1758485388.320,1,0,0,0,0.000,19.0250235,-97.9902316,2298.5,7541,87.5,318.2,6.3,-0.48,0.46,-0.37,0,0.00,0.0
51.370,1758485388.370,1,0,0,0,0.000,19.0250235,-97.9902316,2298.5,7541,87.5,318.2,6.3,-0.53,0.46,-0.34,0,0.00,0.0
51.420,1758485388.420,1,0,0,0,0.000,19.0250235,-97.9902316,2298.5,7541,87.5,318.2,6.3,-0.46,0.46,-0.34,0,0.00,0.0
51.470,1758485388.470,1,0,0,0,0.000,19.0250235,-97.9902316,2298.5,7541,87.5,318.2,6.3,-0.63,0.48,-0.37,0,0.00,0.0
51.520,1758485388.520,1,0,0,0,0.000,19.0250235,-97.9902316,2298.5,7541,87.5,318.2,6.3,-0.55,0.40,-0.37,0,0.00,0.0
51.570,1758485388.570,1,0,0,0,0.000,19.0250235,-97.9902316,2298.5,7541,87.5,318.2,6.3,-0.55,0.48,-0.33,0,0.00,0.0
51.621,1758485388.621,1,0,0,0,0.000,19.0250235,-97.9902316,2298.5,7541,87.5,318.2,6.3,-0.53,0.41,-0.32,0,0.00,0.0
51.671,1758485388.671,1,0,0,0,0.000,19.0250235,-97.9902316,2298.5,7541,87.5,318.2,6.3,-0.53,0.43,-0.32,0,0.00,0.0
51.721,1758485388.721,1,0,0,0,0.000,19.0250235,-97.9902316,2298.5,7541,87.5,318.2,6.3,-0.54,0.43,-0.34,0,0.00,0.0
51.771,1758485388.771,1,0,0,0,0.000,19.0250235,-97.9902316,2298.5,7541,87.5,318.2,6.3,-0.54,0.45,-0.34,0,0.00,0.0
51.822,1758485388.822,1,0,0,0,0.000,19.0250235,-97.9902316,2298.5,7541,87.5,318.2,6.3,-0.60,0.46,-0.29,0,0.00,0.0
51.872,1758485388.872,1,0,0,0,0.000,19.0250235,-97.9902316,2298.5,7541,87.5,318.2,6.3,-0.60,0.48,-0.29,0,0.00,0.0
51.922,1758485388.922,1,0,0,0,0.000,19.0250235,-97.9902316,2298.5,7541,87.5,318.2,6.3,-0.60,0.48,-0.37,0,0.00,0.0
51.972,1758485388.972,1,0,0,0,0.000,19.0250235,-97.9902316,2298.5,7541,87.5,318.2,6.3,-0.60,0.51,-0.38,0,0.00,0.0
52.008,1758485389.008,1,0,0,1,0.000,19.0251275,-97.9904569,2298.6,7541,87.6,307.2,7.6,-0.48,0.32,-0.37,0,0.00,0.0
52.063,1758485389.063,1,0,0,0,0.000,19.0251275,-97.9904569,2298.6,7541,87.6,307.2,7.6,-0.65,0.50,-0.37,0,0.00,0.0
52.113,1758485389.113,1,0,0,0,0.000,19.0251275,-97.9904569,2298.6,7541,87.6,307.2,7.6,-0.44,0.29,-0.37,0,0.00,0.0
52.163,1758485389.163,1,0,0,0,0.000,19.0251275,-97.9904569,2298.6,7541,87.6,307.2,7.6,-0.65,0.50,-0.37,0,0.00,0.0
