Record,Time,Latitude,Longitude,Altitude,Speed,GForceX,GForceZ,Lap,LeanAngle,GyroX,GyroY,GyroZ
1,2026-07-26T15:18:58.880,35.7516169,-82.8697891,2403.2,0.02,0.050,0.991,0,0.0,-7.49,3.09,0.38
2,2026-07-26T15:18:58.920,35.7516165,-82.8697891,2403.6,0.07,0.052,0.991,0,0.0,-5.09,2.94,-0.12
3,2026-07-26T15:18:58.960,35.7516162,-82.8697891,2404.0,0.05,0.056,0.987,0,0.0,-3.22,2.43,-0.52
4,2026-07-26T15:18:59.000,35.7516155,-82.8697888,2404.4,0.05,0.061,0.983,0,0.0,-1.78,1.70,-0.77
5,2026-07-26T15:18:59.040,35.7516148,-82.8697887,2404.8,0.06,0.064,0.982,0,0.0,-1.21,0.94,-0.79
6,2026-07-26T15:18:59.080,35.7516142,-82.8697885,2405.2,0.12,0.066,0.979,0,0.0,-1.28,0.97,-0.78
7,2026-07-26T15:18:59.120,35.7516136,-82.8697884,2405.6,0.16,0.066,0.981,0,0.0,-1.33,1.01,-0.77
8,2026-07-26T15:18:59.160,35.7516131,-82.8697882,2405.9,0.05,0.066,0.980,0,0.0,-1.38,1.03,-0.76
9,2026-07-26T15:18:59.200,35.7516125,-82.8697880,2406.2,0.03,0.064,0.985,0,0.0,-1.41,1.07,-0.75
10,2026-07-26T15:18:59.240,35.7516120,-82.8697880,2406.5,0.07,0.064,0.984,0,0.0,-1.43,1.06,-0.76
11,2026-07-26T15:18:59.280,35.7516116,-82.8697878,2406.8,0.08,0.063,0.986,0,0.0,-1.43,1.07,-0.76
12,2026-07-26T15:18:59.320,35.7516112,-82.8697876,2407.1,0.03,0.062,0.986,0,0.0,-1.40,1.05,-0.76
13,2026-07-26T15:18:59.360,35.7516107,-82.8697875,2407.3,0.00,0.063,0.987,0,0.0,-1.33,1.06,-0.76
14,2026-07-26T15:18:59.400,35.7516104,-82.8697873,2407.6,0.03,0.064,0.987,0,0.0,-1.24,1.04,-0.77
15,2026-07-26T15:18:59.440,35.7516100,-82.8697873,2407.8,0.09,0.064,0.987,0,0.0,-1.15,1.05,-0.77
16,2026-07-26T15:18:59.480,35.7516098,-82.8697871,2408.1,0.02,0.064,0.988,0,0.0,-1.07,1.06,-0.78
17,2026-07-26T15:18:59.520,35.7516094,-82.8697871,2408.4,0.05,0.064,0.986,0,0.0,-1.02,1.06,-0.78
18,2026-07-26T15:18:59.560,35.7516092,-82.8697869,2408.7,0.04,0.062,0.987,0,0.0,-1.01,1.09,-0.79
19,2026-07-26T15:18:59.600,35.7516088,-82.8697868,2408.9,0.08,0.062,0.984,0,0.0,-1.00,1.12,-0.80
20,2026-07-26T15:18:59.640,35.7516086,-82.8697868,2409.2,0.03,0.061,0.987,0,0.0,-1.00,1.16,-0.80
21,2026-07-26T15:18:59.680,35.7516084,-82.8697866,2409.4,0.02,0.061,0.988,0,0.0,-0.96,1.16,-0.80
22,2026-07-26T15:18:59.720,35.7516081,-82.8697866,2409.6,0.01,0.061,0.988,0,0.0,-0.91,1.16,-0.80
23,2026-07-26T15:18:59.760,35.7516079,-82.8697864,2409.8,0.03,0.061,0.991,0,0.0,-0.85,1.12,-0.80
24,2026-07-26T15:18:59.800,35.7516076,-82.8697862,2410.1,0.02,0.060,0.994,0,0.0,-0.80,1.08,-0.80
25,2026-07-26T15:18:59.840,35.7516074,-82.8697861,2410.3,0.03,0.061,0.992,0,0.0,-0.79,1.02,-0.81
26,2026-07-26T15:18:59.880,35.7516072,-82.8697861,2410.5,0.02,0.062,0.988,0,0.0,-0.80,0.99,-0.82
27,2026-07-26T15:18:59.920,35.7516069,-82.8697859,2410.6,0.11,0.061,0.988,0,0.0,-0.82,0.97,-0.82
28,2026-07-26T15:18:59.960,35.7516068,-82.8697859,2410.8,0.03,0.061,0.985,0,0.0,-0.85,0.97,-0.83
29,2026-07-26T15:19:00.000,35.7516066,-82.8697857,2411.0,0.01,0.062,0.982,0,0.0,-0.85,0.96,-0.82
30,2026-07-26T15:19:00.040,35.7516063,-82.8697856,2411.1,0.04,0.064,0.979,0,0.0,-0.81,0.95,-0.82
31,2026-07-26T15:19:00.080,35.7516061,-82.8697856,2411.3,0.07,0.063,0.981,0,0.0,-0.75,0.97,-0.82
32,2026-07-26T15:19:00.120,35.7516060,-82.8697854,2411.5,0.07,0.063,0.982,0,0.0,-0.65,0.97,-0.83
33,2026-07-26T15:19:00.160,35.7516057,-82.8697854,2411.6,0.05,0.062,0.985,0,0.0,-0.53,1.00,-0.83
34,2026-07-26T15:19:00.200,35.7516055,-82.8697852,2411.8,0.05,0.061,0.989,0,0.0,-0.41,1.02,-0.84
35,2026-07-26T15:19:00.240,35.7516055,-82.8697852,2411.9,0.06,0.060,0.992,0,0.0,-0.31,1.04,-0.84
36,2026-07-26T15:19:00.280,35.7516054,-82.8697850,2412.1,0.03,0.061,0.993,0,0.0,-0.26,1.02,-0.84
37,2026-07-26T15:19:00.320,35.7516051,-82.8697849,2412.3,0.06,0.060,0.994,0,0.0,-0.27,1.01,-0.85
38,2026-07-26T15:19:00.360,35.7516050,-82.8697849,2412.4,0.04,0.062,0.992,0,0.0,-0.31,0.98,-0.85
39,2026-07-26T15:19:00.400,35.7516049,-82.8697847,2412.6,0.08,0.063,0.988,0,0.0,-0.39,0.94,-0.86
40,2026-07-26T15:19:00.440,35.7516049,-82.8697847,2412.7,0.02,0.063,0.987,0,0.0,-0.48,0.92,-0.86
41,2026-07-26T15:19:00.480,35.7516048,-82.8697845,2412.9,0.05,0.063,0.984,0,0.0,-0.57,0.91,-0.86
42,2026-07-26T15:19:00.520,35.7516048,-82.8697844,2413.0,0.07,0.064,0.981,0,0.0,-0.62,0.90,-0.86
43,2026-07-26T15:19:00.560,35.7516046,-82.8697844,2413.1,0.04,0.062,0.985,0,0.0,-0.65,0.90,-0.85
44,2026-07-26T15:19:00.600,35.7516046,-82.8697844,2413.2,0.04,0.060,0.988,0,0.0,-0.65,0.92,-0.85
45,2026-07-26T15:19:00.640,35.7516045,-82.8697842,2413.3,0.10,0.060,0.989,0,0.0,-0.64,0.91,-0.84
46,2026-07-26T15:19:00.680,35.7516045,-82.8697842,2413.4,0.05,0.058,0.991,0,0.0,-0.62,0.91,-0.84
47,2026-07-26T15:19:00.720,35.7516044,-82.8697840,2413.4,0.05,0.057,0.993,0,0.0,-0.61,0.91,-0.84
48,2026-07-26T15:19:00.760,35.7516044,-82.8697840,2413.5,0.09,0.059,0.989,0,0.0,-0.60,0.90,-0.83
49,2026-07-26T15:19:00.800,35.7516043,-82.8697838,2413.6,0.02,0.061,0.987,0,0.0,-0.59,0.89,-0.83
50,2026-07-26T15:19:00.840,35.7516043,-82.8697837,2413.7,0.04,0.060,0.989,0,0.0,-0.61,0.90,-0.83
51,2026-07-26T15:19:00.880,35.7516043,-82.8697837,2413.8,0.08,0.062,0.987,0,0.0,-0.62,0.90,-0.83
52,2026-07-26T15:19:00.920,35.7516043,-82.8697837,2413.9,0.02,0.064,0.983,0,0.0,-0.61,0.89,-0.83
53,2026-07-26T15:19:00.960,35.7516042,-82.8697835,2414.0,0.07,0.063,0.986,0,0.0,-0.61,0.89,-0.84
54,2026-07-26T15:19:01.000,35.7516040,-82.8697835,2414.1,0.05,0.062,0.987,0,0.0,-0.60,0.88,-0.84
55,2026-07-26T15:19:01.040,35.7516040,-82.8697833,2414.2,0.01,0.062,0.988,0,0.0,-0.56,0.89,-0.84
56,2026-07-26T15:19:01.080,35.7516039,-82.8697832,2414.3,0.01,0.060,0.991,0,0.0,-0.52,0.90,-0.85
57,2026-07-26T15:19:01.120,35.7516039,-82.8697832,2414.4,0.11,0.059,0.994,0,0.0,-0.49,0.93,-0.85
58,2026-07-26T15:19:01.160,35.7516038,-82.8697830,2414.5,0.06,0.060,0.993,0,0.0,-0.47,0.93,-0.85
59,2026-07-26T15:19:01.200,35.7516038,-82.8697830,2414.5,0.02,0.059,0.994,0,0.0,-0.46,0.95,-0.85
60,2026-07-26T15:19:01.240,35.7516037,-82.8697830,2414.6,0.06,0.059,0.995,0,0.0,-0.48,0.95,-0.85
61,2026-07-26T15:19:01.280,35.7516037,-82.8697828,2414.7,0.03,0.059,0.993,0,0.0,-0.50,0.95,-0.85
62,2026-07-26T15:19:01.320,35.7516037,-82.8697828,2414.8,0.02,0.059,0.991,0,0.0,-0.53,0.93,-0.85
63,2026-07-26T15:19:01.360,35.7516036,-82.8697826,2414.9,0.04,0.060,0.988,0,0.0,-0.56,0.91,-0.84
64,2026-07-26T15:19:01.400,35.7516035,-82.8697825,2415.0,0.05,0.060,0.989,0,0.0,-0.60,0.91,-0.83
65,2026-07-26T15:19:01.440,35.7516034,-82.8697825,2415.0,0.09,0.060,0.987,0,0.0,-0.64,0.89,-0.82
66,2026-07-26T15:19:01.480,35.7516034,-82.8697825,2415.1,0.10,0.060,0.990,0,0.0,-0.69,0.90,-0.82
67,2026-07-26T15:19:01.520,35.7516033,-82.8697823,2415.2,0.02,0.061,0.990,0,0.0,-0.75,0.89,-0.81
68,2026-07-26T15:19:01.560,35.7516033,-82.8697823,2415.3,0.08,0.060,0.993,0,0.0,-0.81,0.91,-0.81
69,2026-07-26T15:19:01.600,35.7516033,-82.8697821,2415.3,0.12,0.062,0.991,0,0.0,-0.86,0.90,-0.81
70,2026-07-26T15:19:01.640,35.7516032,-82.8697821,2415.4,0.10,0.063,0.989,0,0.0,-0.89,0.92,-0.81
71,2026-07-26T15:19:01.680,35.7516032,-82.8697820,2415.4,0.02,0.062,0.988,0,0.0,-0.90,0.91,-0.81
72,2026-07-26T15:19:01.720,35.7516030,-82.8697818,2415.5,0.01,0.062,0.987,0,0.0,-0.90,0.93,-0.81
73,2026-07-26T15:19:01.760,35.7516030,-82.8697818,2415.5,0.10,0.062,0.986,0,0.0,-0.89,0.92,-0.80
74,2026-07-26T15:19:01.800,35.7516030,-82.8697816,2415.6,0.11,0.061,0.987,0,0.0,-0.88,0.93,-0.81
75,2026-07-26T15:19:01.840,35.7516030,-82.8697816,2415.6,0.06,0.060,0.989,0,0.0,-0.88,0.94,-0.81
76,2026-07-26T15:19:01.880,35.7516029,-82.8697816,2415.7,0.08,0.061,0.989,0,0.0,-0.89,0.93,-0.81
77,2026-07-26T15:19:01.920,35.7516029,-82.8697814,2415.8,0.07,0.060,0.991,0,0.0,-0.89,0.94,-0.81
78,2026-07-26T15:19:01.960,35.7516028,-82.8697814,2415.8,0.02,0.061,0.990,0,0.0,-0.87,0.95,-0.81
79,2026-07-26T15:19:02.000,35.7516026,-82.8697813,2415.8,0.05,0.061,0.990,0,0.0,-0.85,0.96,-0.81
80,2026-07-26T15:19:02.040,35.7516023,-82.8697811,2415.9,0.05,0.061,0.991,0,0.0,-0.82,0.96,-0.81
81,2026-07-26T15:19:02.080,35.7516021,-82.8697811,2415.9,0.08,0.060,0.992,0,0.0,-0.79,0.98,-0.82
82,2026-07-26T15:19:02.120,35.7516018,-82.8697809,2415.9,0.05,0.060,0.992,0,0.0,-0.76,0.98,-0.82
83,2026-07-26T15:19:02.160,35.7516016,-82.8697809,2416.0,0.11,0.061,0.990,0,0.0,-0.74,0.97,-0.82
84,2026-07-26T15:19:02.200,35.7516013,-82.8697807,2416.0,0.09,0.060,0.989,0,0.0,-0.71,0.97,-0.83
85,2026-07-26T15:19:02.240,35.7516011,-82.8697806,2416.0,0.02,0.062,0.984,0,0.0,-0.68,0.96,-0.83
86,2026-07-26T15:19:02.280,35.7516009,-82.8697804,2416.1,0.00,0.062,0.985,0,0.0,-0.65,0.97,-0.82
87,2026-07-26T15:19:02.320,35.7516007,-82.8697804,2416.1,0.03,0.062,0.983,0,0.0,-0.62,0.97,-0.82
88,2026-07-26T15:19:02.360,35.7516006,-82.8697802,2416.2,0.03,0.061,0.987,0,0.0,-0.61,0.99,-0.81
89,2026-07-26T15:19:02.400,35.7516004,-82.8697802,2416.2,0.03,0.061,0.989,0,0.0,-0.60,0.97,-0.81
90,2026-07-26T15:19:02.440,35.7516001,-82.8697801,2416.3,0.05,0.060,0.995,0,0.0,-0.63,1.00,-0.82
91,2026-07-26T15:19:02.480,35.7516000,-82.8697800,2416.3,0.01,0.061,0.993,0,0.0,-0.64,0.98,-0.82
92,2026-07-26T15:19:02.520,35.7515998,-82.8697799,2416.3,0.02,0.061,0.993,0,0.0,-0.63,0.98,-0.83
93,2026-07-26T15:19:02.560,35.7515995,-82.8697797,2416.4,0.06,0.061,0.994,0,0.0,-0.59,0.96,-0.84
94,2026-07-26T15:19:02.600,35.7515995,-82.8697797,2416.4,0.05,0.061,0.991,0,0.0,-0.53,0.97,-0.85
95,2026-07-26T15:19:02.640,35.7515993,-82.8697795,2416.4,0.08,0.061,0.990,0,0.0,-0.43,0.96,-0.86
96,2026-07-26T15:19:02.680,35.7515990,-82.8697794,2416.5,0.01,0.061,0.989,0,0.0,-0.32,0.96,-0.86
97,2026-07-26T15:19:02.720,35.7515989,-82.8697793,2416.5,0.02,0.061,0.990,0,0.0,-0.24,0.97,-0.86
98,2026-07-26T15:19:02.760,35.7515988,-82.8697792,2416.6,0.03,0.062,0.985,0,0.0,-0.21,0.96,-0.86
99,2026-07-26T15:19:02.800,35.7515987,-82.8697790,2416.6,0.04,0.060,0.990,0,0.0,-0.23,0.96,-0.86
100,2026-07-26T15:19:02.840,35.7515984,-82.8697790,2416.7,0.07,0.061,0.988,0,0.0,-0.27,0.93,-0.85
101,2026-07-26T15:19:02.880,35.7515983,-82.8697789,2416.7,0.00,0.061,0.987,0,0.0,-0.34,0.93,-0.85
102,2026-07-26T15:19:02.920,35.7515982,-82.8697788,2416.8,0.02,0.062,0.987,0,0.0,-0.42,0.91,-0.85
103,2026-07-26T15:19:02.960,35.7515981,-82.8697787,2416.8,0.03,0.062,0.986,0,0.0,-0.47,0.92,-0.84
104,2026-07-26T15:19:03.000,35.7515980,-82.8697785,2416.9,0.09,0.064,0.983,0,0.0,-0.49,0.91,-0.84
105,2026-07-26T15:19:03.040,35.7515978,-82.8697785,2417.0,0.08,0.063,0.983,0,0.0,-0.49,0.93,-0.84
106,2026-07-26T15:19:03.080,35.7515977,-82.8697783,2417.1,0.09,0.062,0.984,0,0.0,-0.46,0.93,-0.85
107,2026-07-26T15:19:03.120,35.7515976,-82.8697783,2417.2,0.06,0.063,0.980,0,0.0,-0.40,0.92,-0.85
108,2026-07-26T15:19:03.160,35.7515975,-82.8697782,2417.3,0.04,0.062,0.982,0,0.0,-0.33,0.92,-0.86
109,2026-07-26T15:19:03.200,35.7515974,-82.8697781,2417.4,0.01,0.063,0.980,0,0.0,-0.27,0.91,-0.86
110,2026-07-26T15:19:03.240,35.7515972,-82.8697780,2417.5,0.09,0.063,0.982,0,0.0,-0.23,0.92,-0.85
111,2026-07-26T15:19:03.280,35.7515971,-82.8697778,2417.6,0.07,0.064,0.983,0,0.0,-0.23,0.91,-0.85
112,2026-07-26T15:19:03.320,35.7515970,-82.8697778,2417.7,0.04,0.062,0.987,0,0.0,-0.27,0.92,-0.85
113,2026-07-26T15:19:03.360,35.7515970,-82.8697778,2417.8,0.04,0.061,0.989,0,0.0,-0.33,0.91,-0.85
114,2026-07-26T15:19:03.400,35.7515969,-82.8697777,2417.9,0.04,0.060,0.990,0,0.0,-0.41,0.92,-0.85
115,2026-07-26T15:19:03.440,35.7515968,-82.8697776,2418.0,0.08,0.059,0.990,0,0.0,-0.48,0.92,-0.86
116,2026-07-26T15:19:03.480,35.7515966,-82.8697775,2418.1,0.05,0.059,0.990,0,0.0,-0.53,0.94,-0.85
117,2026-07-26T15:19:03.520,35.7515965,-82.8697775,2418.2,0.03,0.060,0.989,0,0.0,-0.55,0.94,-0.85
118,2026-07-26T15:19:03.560,35.7515964,-82.8697773,2418.3,0.02,0.061,0.986,0,0.0,-0.54,0.93,-0.85
119,2026-07-26T15:19:03.600,35.7515964,-82.8697773,2418.3,0.02,0.062,0.986,0,0.0,-0.51,0.93,-0.85
120,2026-07-26T15:19:03.640,35.7515963,-82.8697771,2418.4,0.00,0.062,0.985,0,0.0,-0.45,0.91,-0.85
121,2026-07-26T15:19:03.680,35.7515962,-82.8697771,2418.5,0.03,0.063,0.985,0,0.0,-0.39,0.91,-0.85
122,2026-07-26T15:19:03.720,35.7515960,-82.8697771,2418.6,0.06,0.062,0.986,0,0.0,-0.34,0.90,-0.85
123,2026-07-26T15:19:03.760,35.7515959,-82.8697770,2418.7,0.02,0.061,0.987,0,0.0,-0.29,0.91,-0.85
124,2026-07-26T15:19:03.800,35.7515958,-82.8697769,2418.8,0.02,0.060,0.988,0,0.0,-0.26,0.89,-0.85
125,2026-07-26T15:19:03.840,35.7515958,-82.8697768,2418.8,0.07,0.061,0.986,0,0.0,-0.25,0.91,-0.86
126,2026-07-26T15:19:03.880,35.7515957,-82.8697766,2418.9,0.04,0.061,0.987,0,0.0,-0.24,0.90,-0.86
127,2026-07-26T15:19:03.920,35.7515957,-82.8697766,2419.0,0.02,0.062,0.984,0,0.0,-0.22,0.90,-0.86
128,2026-07-26T15:19:03.960,35.7515956,-82.8697766,2419.1,0.04,0.061,0.987,0,0.0,-0.21,0.89,-0.87
129,2026-07-26T15:19:04.000,35.7515954,-82.8697765,2419.1,0.01,0.062,0.985,0,0.0,-0.19,0.88,-0.87
130,2026-07-26T15:19:04.040,35.7515953,-82.8697764,2419.2,0.03,0.062,0.985,0,0.0,-0.17,0.88,-0.87
131,2026-07-26T15:19:04.080,35.7515952,-82.8697764,2419.2,0.03,0.063,0.986,0,0.0,-0.16,0.88,-0.87
132,2026-07-26T15:19:04.120,35.7515952,-82.8697763,2419.3,0.03,0.062,0.987,0,0.0,-0.16,0.90,-0.87
133,2026-07-26T15:19:04.160,35.7515952,-82.8697761,2419.4,0.07,0.063,0.986,0,0.0,-0.17,0.90,-0.87
134,2026-07-26T15:19:04.200,35.7515951,-82.8697761,2419.4,0.06,0.063,0.985,0,0.0,-0.21,0.91,-0.86
135,2026-07-26T15:19:04.240,35.7515951,-82.8697761,2419.5,0.02,0.062,0.988,0,0.0,-0.26,0.91,-0.86
136,2026-07-26T15:19:04.280,35.7515950,-82.8697759,2419.6,0.10,0.062,0.987,0,0.0,-0.31,0.91,-0.85
137,2026-07-26T15:19:04.320,35.7515948,-82.8697758,2419.6,0.04,0.061,0.989,0,0.0,-0.37,0.91,-0.85
138,2026-07-26T15:19:04.360,35.7515947,-82.8697758,2419.7,0.00,0.061,0.988,0,0.0,-0.40,0.90,-0.85
139,2026-07-26T15:19:04.400,35.7515947,-82.8697758,2419.7,0.05,0.059,0.992,0,0.0,-0.41,0.92,-0.86
140,2026-07-26T15:19:04.440,35.7515946,-82.8697758,2419.7,0.05,0.060,0.990,0,0.0,-0.39,0.91,-0.86
141,2026-07-26T15:19:04.480,35.7515946,-82.8697756,2419.8,0.03,0.061,0.988,0,0.0,-0.36,0.91,-0.86
142,2026-07-26T15:19:04.520,35.7515946,-82.8697756,2419.9,0.01,0.061,0.989,0,0.0,-0.32,0.89,-0.87
143,2026-07-26T15:19:04.560,35.7515945,-82.8697756,2419.9,0.06,0.061,0.987,0,0.0,-0.30,0.89,-0.87
144,2026-07-26T15:19:04.600,35.7515945,-82.8697754,2419.9,0.05,0.061,0.987,0,0.0,-0.29,0.89,-0.88
145,2026-07-26T15:19:04.640,35.7515944,-82.8697754,2420.0,0.02,0.061,0.987,0,0.0,-0.28,0.90,-0.88
146,2026-07-26T15:19:04.680,35.7515943,-82.8697754,2420.0,0.06,0.060,0.989,0,0.0,-0.29,0.89,-0.89
147,2026-07-26T15:19:04.720,35.7515943,-82.8697753,2420.1,0.08,0.059,0.990,0,0.0,-0.27,0.90,-0.88
148,2026-07-26T15:19:04.760,35.7515942,-82.8697751,2420.2,0.04,0.059,0.991,0,0.0,-0.27,0.90,-0.87
149,2026-07-26T15:19:04.800,35.7515942,-82.8697751,2420.2,0.06,0.061,0.988,0,0.0,-0.27,0.87,-0.86
150,2026-07-26T15:19:04.840,35.7515940,-82.8697751,2420.3,0.06,0.060,0.989,0,0.0,-0.29,0.88,-0.85
151,2026-07-26T15:19:04.880,35.7515940,-82.8697751,2420.3,0.04,0.061,0.989,0,0.0,-0.31,0.87,-0.85
152,2026-07-26T15:19:04.920,35.7515940,-82.8697749,2420.4,0.03,0.062,0.990,0,0.0,-0.35,0.88,-0.85
153,2026-07-26T15:19:04.960,35.7515940,-82.8697749,2420.5,0.08,0.063,0.988,0,0.0,-0.35,0.88,-0.85
154,2026-07-26T15:19:05.040,35.7515939,-82.8697749,2420.5,0.05,0.061,0.990,0,0.0,-0.35,0.88,-0.87
155,2026-07-26T15:19:05.080,35.7515939,-82.8697749,2420.6,0.07,0.062,0.988,0,0.0,-0.30,0.88,-0.88
156,2026-07-26T15:19:05.120,35.7515939,-82.8697747,2420.6,0.12,0.062,0.987,0,0.0,-0.23,0.89,-0.88
157,2026-07-26T15:19:05.160,35.7515938,-82.8697747,2420.7,0.06,0.062,0.985,0,0.0,-0.13,0.89,-0.88
158,2026-07-26T15:19:05.200,35.7515937,-82.8697746,2420.8,0.00,0.061,0.990,0,0.0,-0.05,0.92,-0.88
159,2026-07-26T15:19:05.240,35.7515937,-82.8697746,2420.8,0.05,0.062,0.987,0,0.0,0.01,0.90,-0.88
160,2026-07-26T15:19:05.280,35.7515936,-82.8697746,2420.8,0.07,0.060,0.990,0,0.0,0.06,0.88,-0.88
161,2026-07-26T15:19:05.320,35.7515936,-82.8697746,2420.9,0.06,0.060,0.990,0,0.0,0.08,0.86,-0.88
162,2026-07-26T15:19:05.360,35.7515936,-82.8697744,2421.0,0.05,0.059,0.992,0,0.0,0.09,0.87,-0.89
163,2026-07-26T15:19:05.400,35.7515935,-82.8697744,2421.0,0.07,0.061,0.988,0,0.0,0.10,0.86,-0.89
164,2026-07-26T15:19:05.440,35.7515935,-82.8697744,2421.0,0.03,0.061,0.990,0,0.0,0.09,0.89,-0.89
165,2026-07-26T15:19:05.480,35.7515935,-82.8697744,2421.1,0.05,0.062,0.990,0,0.0,0.10,0.91,-0.90
166,2026-07-26T15:19:05.520,35.7515934,-82.8697742,2421.1,0.07,0.061,0.991,0,0.0,0.12,0.94,-0.90
167,2026-07-26T15:19:05.560,35.7515934,-82.8697742,2421.1,0.07,0.062,0.990,0,0.0,0.14,0.93,-0.89
168,2026-07-26T15:19:05.600,35.7515934,-82.8697742,2421.2,0.04,0.062,0.988,0,0.0,0.15,0.93,-0.89
169,2026-07-26T15:19:05.640,35.7515934,-82.8697742,2421.2,0.06,0.061,0.988,0,0.0,0.14,0.93,-0.89
170,2026-07-26T15:19:05.680,35.7515934,-82.8697741,2421.3,0.07,0.061,0.987,0,0.0,0.12,0.91,-0.89
171,2026-07-26T15:19:05.720,35.7515934,-82.8697741,2421.3,0.05,0.062,0.985,0,0.0,0.07,0.91,-0.89
172,2026-07-26T15:19:05.760,35.7515933,-82.8697741,2421.3,0.06,0.062,0.986,0,0.0,0.01,0.89,-0.88
173,2026-07-26T15:19:05.800,35.7515933,-82.8697739,2421.4,0.03,0.061,0.986,0,0.0,-0.05,0.89,-0.88
174,2026-07-26T15:19:05.840,35.7515933,-82.8697739,2421.4,0.01,0.061,0.988,0,0.0,-0.11,0.88,-0.87
175,2026-07-26T15:19:05.880,35.7515932,-82.8697739,2421.5,0.05,0.062,0.986,0,0.0,-0.19,0.87,-0.87
176,2026-07-26T15:19:05.920,35.7515932,-82.8697739,2421.5,0.07,0.061,0.987,0,0.0,-0.27,0.85,-0.86
177,2026-07-26T15:19:05.960,35.7515932,-82.8697739,2421.6,0.04,0.061,0.985,0,0.0,-0.36,0.86,-0.85
178,2026-07-26T15:19:06.000,35.7515932,-82.8697739,2421.6,0.05,0.061,0.988,0,0.0,-0.43,0.87,-0.85
179,2026-07-26T15:19:06.040,35.7515930,-82.8697737,2421.6,0.02,0.063,0.987,0,0.0,-0.46,0.86,-0.85
180,2026-07-26T15:19:06.080,35.7515930,-82.8697737,2421.7,0.04,0.063,0.988,0,0.0,-0.45,0.89,-0.85
181,2026-07-26T15:19:06.120,35.7515930,-82.8697737,2421.7,0.02,0.063,0.989,0,0.0,-0.42,0.91,-0.85
182,2026-07-26T15:19:06.160,35.7515930,-82.8697737,2421.7,0.08,0.062,0.992,0,0.0,-0.37,0.93,-0.84
183,2026-07-26T15:19:06.200,35.7515930,-82.8697737,2421.8,0.03,0.061,0.991,0,0.0,-0.33,0.94,-0.84
184,2026-07-26T15:19:06.240,35.7515930,-82.8697737,2421.8,0.07,0.060,0.992,0,0.0,-0.31,0.95,-0.84
185,2026-07-26T15:19:06.280,35.7515930,-82.8697737,2421.9,0.11,0.059,0.994,0,0.0,-0.34,0.94,-0.84
186,2026-07-26T15:19:06.320,35.7515930,-82.8697737,2421.9,0.06,0.059,0.994,0,0.0,-0.39,0.93,-0.84
187,2026-07-26T15:19:06.360,35.7515930,-82.8697737,2421.9,0.03,0.059,0.992,0,0.0,-0.45,0.92,-0.84
188,2026-07-26T15:19:06.400,35.7515930,-82.8697737,2421.9,0.07,0.060,0.991,0,0.0,-0.48,0.90,-0.84
189,2026-07-26T15:19:06.440,35.7515930,-82.8697737,2422.0,0.04,0.061,0.991,0,0.0,-0.49,0.90,-0.85
190,2026-07-26T15:19:06.480,35.7515930,-82.8697737,2422.0,0.02,0.062,0.988,0,0.0,-0.47,0.89,-0.85
191,2026-07-26T15:19:06.520,35.7515930,-82.8697737,2422.0,0.02,0.062,0.990,0,0.0,-0.41,0.91,-0.86
192,2026-07-26T15:19:06.560,35.7515930,-82.8697737,2422.1,0.02,0.062,0.991,0,0.0,-0.35,0.90,-0.86
193,2026-07-26T15:19:06.600,35.7515932,-82.8697735,2422.1,0.05,0.062,0.990,0,0.0,-0.29,0.92,-0.86
194,2026-07-26T15:19:06.640,35.7515932,-82.8697737,2422.1,0.05,0.063,0.988,0,0.0,-0.25,0.92,-0.85
195,2026-07-26T15:19:06.680,35.7515932,-82.8697737,2422.1,0.02,0.063,0.986,0,0.0,-0.21,0.91,-0.85
196,2026-07-26T15:19:06.720,35.7515933,-82.8697737,2422.2,0.04,0.063,0.985,0,0.0,-0.21,0.90,-0.85
197,2026-07-26T15:19:06.760,35.7515933,-82.8697737,2422.2,0.02,0.064,0.982,0,0.0,-0.21,0.89,-0.86
198,2026-07-26T15:19:06.800,35.7515933,-82.8697737,2422.3,0.05,0.064,0.980,0,0.0,-0.21,0.87,-0.86
199,2026-07-26T15:19:06.840,35.7515934,-82.8697737,2422.3,0.00,0.063,0.984,0,0.0,-0.22,0.87,-0.86
200,2026-07-26T15:19:06.880,35.7515934,-82.8697737,2422.3,0.04,0.062,0.987,0,0.0,-0.24,0.89,-0.86
201,2026-07-26T15:19:06.920,35.7515934,-82.8697737,2422.3,0.04,0.062,0.987,0,0.0,-0.24,0.88,-0.86
202,2026-07-26T15:19:06.960,35.7515934,-82.8697737,2422.4,0.04,0.062,0.987,0,0.0,-0.23,0.90,-0.86
203,2026-07-26T15:19:07.000,35.7515934,-82.8697737,2422.4,0.06,0.061,0.990,0,0.0,-0.22,0.91,-0.86
204,2026-07-26T15:19:07.040,35.7515935,-82.8697737,2422.4,0.02,0.061,0.989,0,0.0,-0.20,0.92,-0.86
205,2026-07-26T15:19:07.080,35.7515935,-82.8697739,2422.4,0.01,0.061,0.991,0,0.0,-0.20,0.92,-0.85
206,2026-07-26T15:19:07.120,35.7515935,-82.8697739,2422.5,0.01,0.060,0.991,0,0.0,-0.22,0.91,-0.85
207,2026-07-26T15:19:07.160,35.7515936,-82.8697739,2422.5,0.04,0.058,0.995,0,0.0,-0.29,0.92,-0.86
208,2026-07-26T15:19:07.200,35.7515936,-82.8697739,2422.5,0.02,0.059,0.992,0,0.0,-0.35,0.90,-0.86
209,2026-07-26T15:19:07.240,35.7515937,-82.8697740,2422.5,0.06,0.061,0.990,0,0.0,-0.42,0.90,-0.85
210,2026-07-26T15:19:07.280,35.7515937,-82.8697740,2422.5,0.04,0.060,0.990,0,0.0,-0.47,0.90,-0.86
211,2026-07-26T15:19:07.320,35.7515938,-82.8697740,2422.5,0.02,0.062,0.987,0,0.0,-0.48,0.91,-0.86
212,2026-07-26T15:19:07.360,35.7515938,-82.8697740,2422.5,0.05,0.064,0.983,0,0.0,-0.47,0.90,-0.86
213,2026-07-26T15:19:07.400,35.7515939,-82.8697740,2422.5,0.04,0.065,0.981,0,0.0,-0.44,0.91,-0.86
214,2026-07-26T15:19:07.440,35.7515939,-82.8697741,2422.5,0.01,0.064,0.983,0,0.0,-0.39,0.91,-0.85
215,2026-07-26T15:19:07.480,35.7515939,-82.8697741,2422.4,0.02,0.066,0.978,0,0.0,-0.34,0.90,-0.85
216,2026-07-26T15:19:07.520,35.7515939,-82.8697741,2422.4,0.06,0.064,0.982,0,0.0,-0.33,0.90,-0.85
217,2026-07-26T15:19:07.560,35.7515939,-82.8697741,2422.4,0.02,0.062,0.985,0,0.0,-0.30,0.89,-0.85
218,2026-07-26T15:19:07.600,35.7515940,-82.8697743,2422.4,0.03,0.062,0.986,0,0.0,-0.27,0.89,-0.85
219,2026-07-26T15:19:07.640,35.7515941,-82.8697743,2422.4,0.04,0.063,0.986,0,0.0,-0.25,0.88,-0.85
220,2026-07-26T15:19:07.680,35.7515941,-82.8697743,2422.4,0.05,0.062,0.989,0,0.0,-0.21,0.91,-0.85
221,2026-07-26T15:19:07.720,35.7515942,-82.8697743,2422.3,0.04,0.062,0.989,0,0.0,-0.17,0.92,-0.85
222,2026-07-26T15:19:07.760,35.7515943,-82.8697744,2422.3,0.00,0.062,0.989,0,0.0,-0.14,0.95,-0.85
223,2026-07-26T15:19:07.800,35.7515944,-82.8697745,2422.3,0.04,0.061,0.992,0,0.0,-0.14,0.96,-0.86
224,2026-07-26T15:19:07.840,35.7515944,-82.8697745,2422.3,0.06,0.060,0.992,0,0.0,-0.13,0.96,-0.86
225,2026-07-26T15:19:07.880,35.7515945,-82.8697746,2422.3,0.06,0.059,0.994,0,0.0,-0.15,0.96,-0.87
226,2026-07-26T15:19:07.920,35.7515945,-82.8697746,2422.3,0.02,0.059,0.993,0,0.0,-0.17,0.93,-0.87
227,2026-07-26T15:19:07.960,35.7515945,-82.8697746,2422.3,0.02,0.060,0.991,0,0.0,-0.20,0.90,-0.86
228,2026-07-26T15:19:08.000,35.7515945,-82.8697746,2422.3,0.07,0.060,0.990,0,0.0,-0.25,0.88,-0.85
229,2026-07-26T15:19:08.040,35.7515946,-82.8697748,2422.3,0.04,0.062,0.988,0,0.0,-0.30,0.88,-0.85
230,2026-07-26T15:19:08.080,35.7515946,-82.8697748,2422.2,0.08,0.063,0.988,0,0.0,-0.35,0.88,-0.85
231,2026-07-26T15:19:08.120,35.7515947,-82.8697748,2422.2,0.09,0.062,0.991,0,0.0,-0.42,0.92,-0.85
232,2026-07-26T15:19:08.160,35.7515947,-82.8697748,2422.1,0.01,0.062,0.991,0,0.0,-0.46,0.93,-0.86
233,2026-07-26T15:19:08.200,35.7515948,-82.8697748,2422.1,0.10,0.064,0.987,0,0.0,-0.46,0.93,-0.87
234,2026-07-26T15:19:08.240,35.7515950,-82.8697748,2422.0,0.08,0.062,0.989,0,0.0,-0.42,0.93,-0.87
235,2026-07-26T15:19:08.280,35.7515950,-82.8697750,2422.0,0.03,0.062,0.985,0,0.0,-0.36,0.91,-0.87
236,2026-07-26T15:19:08.320,35.7515951,-82.8697750,2421.9,0.03,0.063,0.984,0,0.0,-0.31,0.90,-0.86
237,2026-07-26T15:19:08.360,35.7515951,-82.8697750,2421.9,0.01,0.062,0.986,0,0.0,-0.26,0.89,-0.85
238,2026-07-26T15:19:08.400,35.7515951,-82.8697750,2421.8,0.06,0.062,0.987,0,0.0,-0.24,0.90,-0.84
239,2026-07-26T15:19:08.440,35.7515952,-82.8697751,2421.8,0.03,0.062,0.987,0,0.0,-0.24,0.88,-0.84
240,2026-07-26T15:19:08.480,35.7515952,-82.8697751,2421.7,0.04,0.063,0.986,0,0.0,-0.27,0.89,-0.83
241,2026-07-26T15:19:08.520,35.7515953,-82.8697752,2421.7,0.04,0.063,0.986,0,0.0,-0.28,0.89,-0.83
242,2026-07-26T15:19:08.560,35.7515954,-82.8697752,2421.6,0.05,0.063,0.984,0,0.0,-0.29,0.89,-0.83
243,2026-07-26T15:19:08.600,35.7515954,-82.8697752,2421.6,0.02,0.062,0.987,0,0.0,-0.31,0.91,-0.84
244,2026-07-26T15:19:08.640,35.7515956,-82.8697753,2421.5,0.08,0.062,0.984,0,0.0,-0.29,0.91,-0.85
245,2026-07-26T15:19:08.680,35.7515957,-82.8697753,2421.5,0.01,0.062,0.985,0,0.0,-0.28,0.90,-0.85
246,2026-07-26T15:19:08.720,35.7515957,-82.8697753,2421.4,0.01,0.061,0.987,0,0.0,-0.27,0.90,-0.85
247,2026-07-26T15:19:08.760,35.7515957,-82.8697753,2421.4,0.04,0.061,0.988,0,0.0,-0.29,0.92,-0.85
248,2026-07-26T15:19:08.800,35.7515958,-82.8697753,2421.3,0.06,0.062,0.988,0,0.0,-0.30,0.91,-0.85
249,2026-07-26T15:19:08.840,35.7515959,-82.8697753,2421.3,0.04,0.063,0.987,0,-0.7,-0.33,0.91,-0.84
250,2026-07-26T15:19:08.880,35.7515959,-82.8697755,2421.3,0.03,0.062,0.990,0,-0.5,-0.36,0.91,-0.85
251,2026-07-26T15:19:08.920,35.7515960,-82.8697755,2421.2,0.08,0.061,0.989,0,-0.6,-0.37,0.91,-0.85
252,2026-07-26T15:19:08.960,35.7515960,-82.8697755,2421.1,0.07,0.061,0.990,0,-0.7,-0.36,0.89,-0.85
253,2026-07-26T15:19:09.000,35.7515962,-82.8697755,2421.1,0.10,0.061,0.991,0,-0.9,-0.35,0.88,-0.85
254,2026-07-26T15:19:09.040,35.7515963,-82.8697755,2421.1,0.09,0.059,0.995,0,-1.0,-0.33,0.90,-0.85
255,2026-07-26T15:19:09.080,35.7515963,-82.8697755,2421.0,0.10,0.059,0.996,0,-1.1,-0.30,0.89,-0.84
256,2026-07-26T15:19:09.120,35.7515963,-82.8697755,2421.0,0.15,0.058,0.996,0,-1.2,-0.30,0.91,-0.84
257,2026-07-26T15:19:09.160,35.7515963,-82.8697757,2421.0,0.12,0.059,0.995,0,-1.3,-0.28,0.91,-0.84
258,2026-07-26T15:19:09.200,35.7515964,-82.8697757,2420.9,0.18,0.058,0.997,0,-1.4,-0.27,0.93,-0.85
259,2026-07-26T15:19:09.240,35.7515964,-82.8697758,2420.8,0.10,0.057,0.997,0,-1.5,-0.28,0.92,-0.85
260,2026-07-26T15:19:09.280,35.7515965,-82.8697758,2420.8,0.22,0.059,0.994,0,-1.6,-0.27,0.93,-0.86
261,2026-07-26T15:19:09.320,35.7515966,-82.8697758,2420.7,0.15,0.060,0.992,0,-0.5,-0.27,0.91,-0.86
262,2026-07-26T15:19:09.360,35.7515966,-82.8697758,2420.7,0.02,0.061,0.989,0,-0.5,-0.27,0.90,-0.86
263,2026-07-26T15:19:09.400,35.7515966,-82.8697758,2420.6,0.15,0.064,0.984,0,-0.5,-0.25,0.89,-0.85
264,2026-07-26T15:19:09.440,35.7515968,-82.8697758,2420.6,0.08,0.063,0.985,0,-0.5,-0.24,0.88,-0.85
265,2026-07-26T15:19:09.480,35.7515968,-82.8697760,2420.6,0.06,0.062,0.988,0,-0.4,-0.24,0.89,-0.86
266,2026-07-26T15:19:09.520,35.7515969,-82.8697760,2420.5,0.08,0.062,0.989,0,-0.4,-0.24,0.88,-0.86
267,2026-07-26T15:19:09.560,35.7515969,-82.8697760,2420.5,0.14,0.062,0.988,0,-0.4,-0.23,0.89,-0.86
268,2026-07-26T15:19:09.600,35.7515969,-82.8697760,2420.4,0.03,0.060,0.991,0,-0.3,-0.23,0.91,-0.86
269,2026-07-26T15:19:09.640,35.7515969,-82.8697760,2420.4,0.02,0.061,0.989,0,-0.3,-0.23,0.92,-0.87
270,2026-07-26T15:19:09.680,35.7515969,-82.8697760,2420.3,0.02,0.061,0.988,0,-0.3,-0.23,0.91,-0.87
271,2026-07-26T15:19:09.720,35.7515969,-82.8697760,2420.2,0.09,0.061,0.985,0,-0.2,-0.24,0.91,-0.87
272,2026-07-26T15:19:09.760,35.7515969,-82.8697760,2420.2,0.09,0.059,0.990,0,-0.2,-0.25,0.93,-0.86
273,2026-07-26T15:19:09.800,35.7515969,-82.8697760,2420.1,0.03,0.061,0.986,0,-0.2,-0.26,0.90,-0.86
274,2026-07-26T15:19:09.840,35.7515969,-82.8697760,2420.0,0.03,0.061,0.986,0,-0.1,-0.27,0.91,-0.86
275,2026-07-26T15:19:09.880,35.7515969,-82.8697760,2419.9,0.06,0.061,0.986,0,-0.1,-0.28,0.89,-0.86
276,2026-07-26T15:19:09.920,35.7515969,-82.8697760,2419.8,0.03,0.061,0.989,0,-0.1,-0.30,0.91,-0.85
277,2026-07-26T15:19:09.960,35.7515969,-82.8697760,2419.8,0.06,0.062,0.987,0,-0.1,-0.30,0.90,-0.85
278,2026-07-26T15:19:10.000,35.7515969,-82.8697760,2419.7,0.07,0.062,0.989,0,-0.1,-0.33,0.92,-0.85
279,2026-07-26T15:19:10.040,35.7515968,-82.8697760,2419.6,0.05,0.062,0.989,0,-0.1,-0.34,0.92,-0.85
280,2026-07-26T15:19:10.080,35.7515968,-82.8697760,2419.6,0.03,0.064,0.987,0,-0.1,-0.34,0.93,-0.85
281,2026-07-26T15:19:10.120,35.7515968,-82.8697760,2419.5,0.06,0.063,0.986,0,-0.1,-0.34,0.92,-0.85
282,2026-07-26T15:19:10.160,35.7515968,-82.8697760,2419.4,0.02,0.061,0.987,0,-0.1,-0.33,0.93,-0.85
283,2026-07-26T15:19:10.200,35.7515967,-82.8697760,2419.3,0.08,0.061,0.989,0,-0.1,-0.33,0.93,-0.85
284,2026-07-26T15:19:10.240,35.7515967,-82.8697760,2419.3,0.05,0.061,0.989,0,-0.0,-0.33,0.91,-0.86
285,2026-07-26T15:19:10.280,35.7515968,-82.8697760,2419.2,0.19,0.059,0.994,0,-0.0,-0.34,0.91,-0.85
286,2026-07-26T15:19:10.320,35.7515968,-82.8697760,2419.2,0.14,0.059,0.994,0,-0.0,-0.36,0.91,-0.85
287,2026-07-26T15:19:10.360,35.7515967,-82.8697760,2419.1,0.05,0.060,0.994,0,-0.0,-0.40,0.92,-0.85
288,2026-07-26T15:19:10.400,35.7515967,-82.8697761,2419.0,0.01,0.060,0.994,0,-0.0,-0.45,0.92,-0.85
289,2026-07-26T15:19:10.440,35.7515967,-82.8697761,2419.0,0.13,0.060,0.994,0,-0.0,-0.50,0.95,-0.84
290,2026-07-26T15:19:10.480,35.7515967,-82.8697761,2418.9,0.09,0.062,0.991,0,-0.0,-0.53,0.94,-0.84
291,2026-07-26T15:19:10.520,35.7515966,-82.8697761,2418.8,0.01,0.063,0.987,0,-0.0,-0.56,0.94,-0.83
292,2026-07-26T15:19:10.560,35.7515966,-82.8697761,2418.7,0.05,0.063,0.987,0,-0.0,-0.58,0.93,-0.83
293,2026-07-26T15:19:10.600,35.7515967,-82.8697762,2418.6,0.15,0.063,0.984,0,-0.0,-0.57,0.91,-0.83
294,2026-07-26T15:19:10.640,35.7515966,-82.8697762,2418.6,0.05,0.064,0.982,0,-0.0,-0.56,0.90,-0.83
295,2026-07-26T15:19:10.680,35.7515966,-82.8697762,2418.5,0.06,0.062,0.985,0,-0.0,-0.56,0.90,-0.83
296,2026-07-26T15:19:10.720,35.7515966,-82.8697762,2418.5,0.07,0.063,0.985,0,-0.0,-0.54,0.91,-0.83
297,2026-07-26T15:19:10.760,35.7515966,-82.8697762,2418.4,0.07,0.063,0.986,0,-0.0,-0.53,0.89,-0.84
298,2026-07-26T15:19:10.800,35.7515965,-82.8697762,2418.3,0.03,0.064,0.984,0,-0.0,-0.50,0.88,-0.84
299,2026-07-26T15:19:10.840,35.7515965,-82.8697762,2418.3,0.06,0.062,0.987,0,-0.0,-0.47,0.87,-0.84
300,2026-07-26T15:19:10.880,35.7515965,-82.8697762,2418.2,0.03,0.061,0.986,0,-0.0,-0.39,0.86,-0.85
301,2026-07-26T15:19:10.920,35.7515965,-82.8697762,2418.2,0.11,0.061,0.987,0,-0.0,-0.29,0.86,-0.85
302,2026-07-26T15:19:10.960,35.7515965,-82.8697762,2418.1,0.10,0.060,0.990,0,-0.0,-0.19,0.90,-0.86
303,2026-07-26T15:19:11.000,35.7515965,-82.8697762,2418.0,0.05,0.059,0.994,0,-0.0,-0.09,0.93,-0.86
304,2026-07-26T15:19:11.040,35.7515965,-82.8697763,2418.0,0.06,0.059,0.994,0,-0.0,-0.03,0.94,-0.87
305,2026-07-26T15:19:11.080,35.7515965,-82.8697763,2417.9,0.12,0.060,0.995,0,-0.0,-0.02,0.95,-0.87
306,2026-07-26T15:19:11.120,35.7515965,-82.8697763,2417.9,0.03,0.058,0.996,0,-0.0,-0.08,0.94,-0.87
307,2026-07-26T15:19:11.160,35.7515965,-82.8697763,2417.8,0.12,0.059,0.992,0,-0.0,-0.15,0.91,-0.87
308,2026-07-26T15:19:11.200,35.7515964,-82.8697763,2417.8,0.06,0.059,0.992,0,-0.0,-0.23,0.90,-0.87
309,2026-07-26T15:19:11.240,35.7515964,-82.8697763,2417.7,0.05,0.060,0.990,0,-0.0,-0.30,0.91,-0.86
310,2026-07-26T15:19:11.280,35.7515964,-82.8697763,2417.7,0.01,0.061,0.988,0,-0.0,-0.35,0.90,-0.86
311,2026-07-26T15:19:11.320,35.7515964,-82.8697763,2417.6,0.08,0.061,0.987,0,-0.0,-0.38,0.89,-0.86
312,2026-07-26T15:19:11.360,35.7515964,-82.8697764,2417.6,0.08,0.060,0.990,0,-0.0,-0.42,0.90,-0.85
313,2026-07-26T15:19:11.400,35.7515964,-82.8697764,2417.5,0.03,0.060,0.988,0,-0.0,-0.44,0.88,-0.85
314,2026-07-26T15:19:11.440,35.7515964,-82.8697764,2417.5,0.04,0.062,0.986,0,-0.0,-0.47,0.87,-0.84
315,2026-07-26T15:19:11.480,35.7515964,-82.8697764,2417.4,0.09,0.062,0.987,0,-0.0,-0.50,0.86,-0.83
316,2026-07-26T15:19:11.520,35.7515964,-82.8697764,2417.4,0.03,0.064,0.984,0,-0.0,-0.53,0.87,-0.83
317,2026-07-26T15:19:11.560,35.7515964,-82.8697764,2417.3,0.07,0.064,0.984,0,-0.0,-0.55,0.87,-0.82
318,2026-07-26T15:19:11.600,35.7515964,-82.8697764,2417.3,0.11,0.064,0.984,0,-0.0,-0.58,0.89,-0.82
319,2026-07-26T15:19:11.640,35.7515964,-82.8697764,2417.2,0.03,0.062,0.987,0,-0.0,-0.58,0.90,-0.82
320,2026-07-26T15:19:11.680,35.7515964,-82.8697764,2417.2,0.02,0.063,0.981,0,-0.0,-0.56,0.90,-0.82
321,2026-07-26T15:19:11.720,35.7515964,-82.8697764,2417.1,0.07,0.062,0.983,0,-0.0,-0.52,0.91,-0.83
322,2026-07-26T15:19:11.760,35.7515964,-82.8697764,2417.1,0.03,0.062,0.980,0,-0.0,-0.46,0.89,-0.83
323,2026-07-26T15:19:11.800,35.7515963,-82.8697764,2417.0,0.05,0.062,0.984,0,-0.0,-0.39,0.89,-0.84
324,2026-07-26T15:19:11.840,35.7515963,-82.8697764,2417.0,0.05,0.063,0.983,0,-0.0,-0.31,0.87,-0.84
325,2026-07-26T15:19:11.880,35.7515963,-82.8697764,2416.9,0.09,0.062,0.986,0,-0.0,-0.25,0.88,-0.85
326,2026-07-26T15:19:11.920,35.7515963,-82.8697765,2416.9,0.14,0.062,0.988,0,-0.0,-0.20,0.89,-0.85
327,2026-07-26T15:19:11.960,35.7515963,-82.8697765,2416.8,0.05,0.063,0.990,0,-0.0,-0.17,0.91,-0.85
328,2026-07-26T15:19:12.000,35.7515962,-82.8697765,2416.8,0.00,0.063,0.990,0,-0.0,-0.16,0.92,-0.86
329,2026-07-26T15:19:12.040,35.7515961,-82.8697765,2416.8,0.06,0.062,0.988,0,-0.0,-0.14,0.92,-0.88
330,2026-07-26T15:19:12.080,35.7515961,-82.8697765,2416.7,0.04,0.060,0.991,0,-0.0,-0.13,0.93,-0.88
331,2026-07-26T15:19:12.120,35.7515961,-82.8697765,2416.7,0.06,0.060,0.990,0,-0.0,-0.11,0.92,-0.88
332,2026-07-26T15:19:12.160,35.7515961,-82.8697765,2416.7,0.07,0.060,0.989,0,-0.0,-0.10,0.91,-0.88
333,2026-07-26T15:19:12.200,35.7515961,-82.8697765,2416.6,0.07,0.061,0.988,0,-0.0,-0.09,0.89,-0.88
334,2026-07-26T15:19:12.240,35.7515960,-82.8697765,2416.6,0.10,0.059,0.992,0,-0.0,-0.10,0.91,-0.88
335,2026-07-26T15:19:12.280,35.7515960,-82.8697765,2416.5,0.07,0.061,0.991,0,-0.0,-0.10,0.90,-0.88
336,2026-07-26T15:19:12.320,35.7515960,-82.8697765,2416.5,0.02,0.062,0.988,0,-0.0,-0.09,0.91,-0.88
337,2026-07-26T15:19:12.360,35.7515960,-82.8697765,2416.5,0.04,0.062,0.988,0,-0.0,-0.08,0.91,-0.88
338,2026-07-26T15:19:12.400,35.7515960,-82.8697765,2416.4,0.06,0.063,0.984,0,-0.0,-0.06,0.90,-0.88
339,2026-07-26T15:19:12.440,35.7515960,-82.8697765,2416.4,0.05,0.064,0.982,0,-0.0,-0.05,0.89,-0.87
340,2026-07-26T15:19:12.480,35.7515960,-82.8697765,2416.4,0.10,0.065,0.979,0,-0.0,-0.06,0.87,-0.86
341,2026-07-26T15:19:12.520,35.7515960,-82.8697765,2416.3,0.05,0.064,0.982,0,-0.0,-0.09,0.87,-0.85
342,2026-07-26T15:19:12.560,35.7515959,-82.8697765,2416.3,0.03,0.064,0.982,0,-0.0,-0.14,0.87,-0.85
343,2026-07-26T15:19:12.600,35.7515959,-82.8697765,2416.3,0.01,0.064,0.985,0,-0.0,-0.19,0.89,-0.85
344,2026-07-26T15:19:12.640,35.7515959,-82.8697765,2416.2,0.02,0.064,0.986,0,-0.0,-0.24,0.88,-0.85
345,2026-07-26T15:19:12.680,35.7515959,-82.8697765,2416.2,0.03,0.063,0.988,0,-0.0,-0.30,0.90,-0.85
346,2026-07-26T15:19:12.720,35.7515959,-82.8697765,2416.2,0.10,0.062,0.989,0,-0.0,-0.35,0.91,-0.85
347,2026-07-26T15:19:12.760,35.7515959,-82.8697765,2416.2,0.05,0.062,0.989,0,-0.0,-0.37,0.93,-0.85
348,2026-07-26T15:19:12.800,35.7515959,-82.8697765,2416.1,0.06,0.061,0.990,0,-0.0,-0.37,0.93,-0.85
349,2026-07-26T15:19:12.840,35.7515959,-82.8697765,2416.1,0.03,0.060,0.990,0,-0.0,-0.33,0.93,-0.85
350,2026-07-26T15:19:12.880,35.7515959,-82.8697765,2416.1,0.02,0.060,0.990,0,-0.0,-0.29,0.92,-0.86
351,2026-07-26T15:19:12.920,35.7515960,-82.8697767,2416.1,0.06,0.061,0.990,0,-0.0,-0.24,0.90,-0.86
352,2026-07-26T15:19:12.960,35.7515960,-82.8697767,2416.0,0.03,0.061,0.989,0,-0.0,-0.23,0.89,-0.87
353,2026-07-26T15:19:13.000,35.7515960,-82.8697767,2416.0,0.06,0.062,0.987,0,-0.0,-0.25,0.88,-0.86
354,2026-07-26T15:19:13.040,35.7515961,-82.8697767,2416.0,0.08,0.062,0.986,0,-0.0,-0.31,0.89,-0.86
355,2026-07-26T15:19:13.080,35.7515961,-82.8697767,2416.0,0.03,0.061,0.988,0,-0.0,-0.40,0.88,-0.85
356,2026-07-26T15:19:13.120,35.7515961,-82.8697767,2416.0,0.02,0.059,0.990,0,-0.0,-0.48,0.91,-0.84
357,2026-07-26T15:19:13.160,35.7515961,-82.8697767,2416.0,0.12,0.060,0.990,0,-0.0,-0.56,0.91,-0.83
358,2026-07-26T15:19:13.200,35.7515961,-82.8697769,2416.0,0.10,0.061,0.987,0,-0.0,-0.62,0.90,-0.82
359,2026-07-26T15:19:13.240,35.7515962,-82.8697769,2416.0,0.07,0.061,0.987,0,-0.0,-0.65,0.90,-0.81
360,2026-07-26T15:19:13.280,35.7515962,-82.8697769,2415.9,0.09,0.062,0.987,0,-0.0,-0.66,0.90,-0.81
361,2026-07-26T15:19:13.320,35.7515963,-82.8697769,2415.9,0.04,0.063,0.985,0,-0.0,-0.67,0.89,-0.81
362,2026-07-26T15:19:13.360,35.7515963,-82.8697769,2415.9,0.04,0.063,0.986,0,-0.0,-0.66,0.88,-0.82
363,2026-07-26T15:19:13.400,35.7515963,-82.8697769,2415.9,0.04,0.061,0.988,0,-0.0,-0.65,0.90,-0.83
364,2026-07-26T15:19:13.440,35.7515963,-82.8697769,2415.9,0.09,0.061,0.989,0,-0.0,-0.61,0.89,-0.84
365,2026-07-26T15:19:13.480,35.7515963,-82.8697770,2415.9,0.03,0.062,0.986,0,-0.0,-0.56,0.90,-0.84
366,2026-07-26T15:19:13.520,35.7515964,-82.8697770,2415.8,0.03,0.062,0.986,0,-0.0,-0.50,0.91,-0.84
367,2026-07-26T15:19:13.560,35.7515964,-82.8697770,2415.8,0.08,0.064,0.984,0,-0.0,-0.47,0.93,-0.84
368,2026-07-26T15:19:13.600,35.7515965,-82.8697770,2415.8,0.08,0.062,0.987,0,-0.0,-0.48,0.96,-0.83
369,2026-07-26T15:19:13.640,35.7515965,-82.8697772,2415.8,0.10,0.062,0.989,0,-0.0,-0.52,0.96,-0.83
370,2026-07-26T15:19:13.680,35.7515965,-82.8697772,2415.8,0.11,0.062,0.989,0,-0.0,-0.57,0.95,-0.83
371,2026-07-26T15:19:13.720,35.7515965,-82.8697772,2415.8,0.15,0.060,0.991,0,-0.0,-0.60,0.94,-0.84
372,2026-07-26T15:19:13.760,35.7515965,-82.8697772,2415.7,0.02,0.059,0.993,0,-0.0,-0.61,0.93,-0.84
373,2026-07-26T15:19:13.800,35.7515964,-82.8697772,2415.7,0.03,0.060,0.991,0,-0.0,-0.57,0.90,-0.85
374,2026-07-26T15:19:13.840,35.7515964,-82.8697772,2415.6,0.13,0.060,0.992,0,-0.0,-0.49,0.92,-0.86
375,2026-07-26T15:19:13.880,35.7515964,-82.8697772,2415.6,0.05,0.061,0.992,0,-0.0,-0.38,0.93,-0.86
376,2026-07-26T15:19:13.920,35.7515963,-82.8697772,2415.5,0.11,0.062,0.988,0,-0.0,-0.29,0.94,-0.86
377,2026-07-26T15:19:13.960,35.7515963,-82.8697772,2415.5,0.11,0.061,0.990,0,-0.0,-0.23,0.93,-0.86
378,2026-07-26T15:19:14.000,35.7515963,-82.8697772,2415.4,0.02,0.061,0.990,0,-0.0,-0.19,0.92,-0.87
379,2026-07-26T15:19:14.040,35.7515963,-82.8697772,2415.4,0.02,0.060,0.991,0,-0.0,-0.19,0.91,-0.86
380,2026-07-26T15:19:14.080,35.7515963,-82.8697772,2415.3,0.04,0.059,0.993,0,-0.0,-0.20,0.89,-0.86
381,2026-07-26T15:19:14.120,35.7515962,-82.8697772,2415.3,0.03,0.059,0.995,0,-0.0,-0.22,0.90,-0.87
382,2026-07-26T15:19:14.160,35.7515962,-82.8697772,2415.2,0.06,0.060,0.993,0,-0.0,-0.22,0.90,-0.87
383,2026-07-26T15:19:14.200,35.7515962,-82.8697772,2415.2,0.01,0.060,0.994,0,-0.0,-0.22,0.92,-0.87
384,2026-07-26T15:19:14.240,35.7515961,-82.8697771,2415.1,0.09,0.061,0.992,0,-0.0,-0.20,0.92,-0.88
385,2026-07-26T15:19:14.280,35.7515961,-82.8697771,2415.1,0.05,0.062,0.988,0,-0.0,-0.20,0.92,-0.87
386,2026-07-26T15:19:14.320,35.7515960,-82.8697771,2415.0,0.10,0.061,0.987,0,-0.0,-0.20,0.91,-0.87
387,2026-07-26T15:19:14.360,35.7515960,-82.8697770,2415.0,0.01,0.061,0.987,0,-0.0,-0.22,0.89,-0.86
388,2026-07-26T15:19:14.400,35.7515959,-82.8697770,2414.9,0.06,0.060,0.990,0,-0.0,-0.26,0.87,-0.85
389,2026-07-26T15:19:14.440,35.7515959,-82.8697770,2414.9,0.07,0.060,0.988,0,-0.0,-0.32,0.86,-0.84
390,2026-07-26T15:19:14.480,35.7515959,-82.8697770,2414.9,0.03,0.060,0.989,0,-0.0,-0.38,0.87,-0.84
391,2026-07-26T15:19:14.520,35.7515958,-82.8697770,2414.8,0.07,0.059,0.991,0,-0.0,-0.43,0.87,-0.85
392,2026-07-26T15:19:14.560,35.7515958,-82.8697770,2414.8,0.04,0.059,0.991,0,-0.0,-0.45,0.90,-0.85
393,2026-07-26T15:19:14.600,35.7515958,-82.8697770,2414.8,0.09,0.060,0.989,0,-0.0,-0.45,0.91,-0.85
394,2026-07-26T15:19:14.640,35.7515958,-82.8697770,2414.7,0.07,0.061,0.989,0,-0.0,-0.42,0.91,-0.85
395,2026-07-26T15:19:14.680,35.7515957,-82.8697770,2414.7,0.00,0.062,0.988,0,-0.0,-0.39,0.91,-0.85
396,2026-07-26T15:19:14.720,35.7515957,-82.8697770,2414.6,0.05,0.062,0.986,0,-0.0,-0.35,0.90,-0.85
397,2026-07-26T15:19:14.760,35.7515957,-82.8697770,2414.6,0.02,0.062,0.989,0,-0.0,-0.34,0.91,-0.85
398,2026-07-26T15:19:14.800,35.7515956,-82.8697770,2414.5,0.02,0.062,0.989,0,-0.0,-0.32,0.90,-0.85
399,2026-07-26T15:19:14.840,35.7515956,-82.8697770,2414.5,0.03,0.062,0.989,0,-0.0,-0.31,0.91,-0.85
400,2026-07-26T15:19:14.880,35.7515956,-82.8697770,2414.5,0.05,0.061,0.990,0,-0.0,-0.31,0.91,-0.84
401,2026-07-26T15:19:14.920,35.7515955,-82.8697770,2414.4,0.02,0.062,0.985,0,-0.0,-0.31,0.90,-0.84
402,2026-07-26T15:19:14.960,35.7515955,-82.8697770,2414.4,0.04,0.063,0.982,0,-0.0,-0.36,0.87,-0.84
403,2026-07-26T15:19:15.040,35.7515955,-82.8697770,2414.4,0.04,0.062,0.983,0,-0.0,-0.40,0.87,-0.84
404,2026-07-26T15:19:15.080,35.7515955,-82.8697770,2414.3,0.02,0.062,0.985,0,-0.0,-0.43,0.86,-0.84
405,2026-07-26T15:19:15.120,35.7515954,-82.8697770,2414.3,0.05,0.062,0.984,0,-0.0,-0.45,0.86,-0.85
406,2026-07-26T15:19:15.160,35.7515954,-82.8697770,2414.3,0.06,0.062,0.987,0,-0.0,-0.45,0.87,-0.85
407,2026-07-26T15:19:15.200,35.7515954,-82.8697770,2414.2,0.07,0.062,0.988,0,-0.0,-0.42,0.90,-0.84
408,2026-07-26T15:19:15.240,35.7515954,-82.8697770,2414.2,0.12,0.061,0.989,0,-0.0,-0.38,0.91,-0.84
409,2026-07-26T15:19:15.280,35.7515954,-82.8697770,2414.1,0.07,0.061,0.988,0,-0.0,-0.33,0.93,-0.84
410,2026-07-26T15:19:15.320,35.7515953,-82.8697770,2414.1,0.08,0.059,0.991,0,-0.0,-0.29,0.94,-0.84
411,2026-07-26T15:19:15.360,35.7515953,-82.8697770,2414.1,0.12,0.059,0.989,0,-0.0,-0.26,0.93,-0.85
412,2026-07-26T15:19:15.400,35.7515953,-82.8697770,2414.0,0.05,0.059,0.991,0,-0.0,-0.24,0.92,-0.86
413,2026-07-26T15:19:15.440,35.7515953,-82.8697770,2414.0,0.09,0.058,0.991,0,-0.0,-0.24,0.90,-0.86
414,2026-07-26T15:19:15.480,35.7515952,-82.8697770,2414.0,0.04,0.058,0.993,0,-0.0,-0.27,0.90,-0.86
415,2026-07-26T15:19:15.520,35.7515952,-82.8697770,2413.9,0.07,0.059,0.991,0,-0.0,-0.30,0.88,-0.86
416,2026-07-26T15:19:15.560,35.7515952,-82.8697770,2413.9,0.02,0.059,0.991,0,-0.0,-0.35,0.90,-0.86
417,2026-07-26T15:19:15.600,35.7515952,-82.8697770,2413.9,0.05,0.059,0.992,0,-0.0,-0.38,0.89,-0.85
418,2026-07-26T15:19:15.640,35.7515952,-82.8697770,2413.8,0.03,0.060,0.989,0,-0.0,-0.40,0.90,-0.85
419,2026-07-26T15:19:15.680,35.7515952,-82.8697770,2413.8,0.02,0.060,0.988,0,-0.0,-0.41,0.90,-0.84
420,2026-07-26T15:19:15.720,35.7515952,-82.8697770,2413.8,0.07,0.059,0.990,0,-0.0,-0.41,0.90,-0.84
421,2026-07-26T15:19:15.760,35.7515952,-82.8697770,2413.8,0.10,0.059,0.992,0,-0.0,-0.40,0.90,-0.84
422,2026-07-26T15:19:15.800,35.7515950,-82.8697770,2413.7,0.08,0.060,0.990,0,-0.0,-0.39,0.88,-0.85
423,2026-07-26T15:19:15.840,35.7515950,-82.8697770,2413.7,0.04,0.060,0.989,0,-0.0,-0.38,0.89,-0.85
424,2026-07-26T15:19:15.880,35.7515950,-82.8697770,2413.7,0.09,0.060,0.990,0,-0.0,-0.36,0.89,-0.84
425,2026-07-26T15:19:15.920,35.7515950,-82.8697770,2413.7,0.06,0.061,0.989,0,-0.0,-0.35,0.89,-0.84
426,2026-07-26T15:19:15.960,35.7515950,-82.8697770,2413.6,0.03,0.062,0.988,0,-0.0,-0.36,0.88,-0.84
427,2026-07-26T15:19:16.040,35.7515949,-82.8697770,2413.6,0.04,0.061,0.988,0,-0.0,-0.41,0.89,-0.83
428,2026-07-26T15:19:16.080,35.7515949,-82.8697770,2413.6,0.03,0.061,0.991,0,-0.0,-0.47,0.88,-0.83
429,2026-07-26T15:19:16.120,35.7515949,-82.8697770,2413.6,0.02,0.061,0.990,0,-0.0,-0.56,0.89,-0.83
430,2026-07-26T15:19:16.160,35.7515949,-82.8697770,2413.5,0.04,0.059,0.992,0,-0.0,-0.65,0.89,-0.83
431,2026-07-26T15:19:16.200,35.7515948,-82.8697770,2413.5,0.02,0.059,0.991,0,-0.0,-0.69,0.90,-0.82
432,2026-07-26T15:19:16.240,35.7515948,-82.8697770,2413.5,0.03,0.060,0.990,0,-0.0,-0.68,0.90,-0.82
433,2026-07-26T15:19:16.280,35.7515948,-82.8697770,2413.5,0.08,0.060,0.988,0,-0.0,-0.64,0.90,-0.82
434,2026-07-26T15:19:16.320,35.7515948,-82.8697770,2413.5,0.05,0.060,0.989,0,-0.0,-0.58,0.90,-0.82
435,2026-07-26T15:19:16.360,35.7515948,-82.8697770,2413.4,0.09,0.061,0.988,0,-0.0,-0.50,0.91,-0.83
436,2026-07-26T15:19:16.400,35.7515948,-82.8697770,2413.4,0.04,0.061,0.990,0,-0.0,-0.43,0.93,-0.84
437,2026-07-26T15:19:16.440,35.7515948,-82.8697770,2413.4,0.05,0.061,0.990,0,-0.0,-0.34,0.95,-0.85
438,2026-07-26T15:19:16.480,35.7515947,-82.8697771,2413.4,0.07,0.062,0.990,0,-0.0,-0.27,1.00,-0.86
439,2026-07-26T15:19:16.520,35.7515947,-82.8697770,2413.4,0.04,0.062,0.991,0,-0.0,-0.20,1.02,-0.86
440,2026-07-26T15:19:16.560,35.7515947,-82.8697771,2413.4,0.08,0.061,0.993,0,-0.0,-0.15,1.04,-0.87
441,2026-07-26T15:19:16.600,35.7515947,-82.8697771,2413.4,0.06,0.060,0.993,0,-0.0,-0.14,1.03,-0.86
442,2026-07-26T15:19:16.640,35.7515947,-82.8697771,2413.3,0.03,0.060,0.992,0,-0.0,-0.19,1.00,-0.86
443,2026-07-26T15:19:16.680,35.7515947,-82.8697771,2413.3,0.06,0.058,0.993,0,-0.0,-0.29,0.97,-0.85
444,2026-07-26T15:19:16.720,35.7515947,-82.8697772,2413.3,0.09,0.058,0.993,0,-0.0,-0.43,0.93,-0.84
445,2026-07-26T15:19:16.760,35.7515947,-82.8697772,2413.3,0.03,0.058,0.992,0,-0.0,-0.63,0.90,-0.82
446,2026-07-26T15:19:16.800,35.7515947,-82.8697772,2413.3,0.01,0.057,0.994,0,-0.0,-0.85,0.85,-0.81
447,2026-07-26T15:19:16.840,35.7515947,-82.8697772,2413.3,0.06,0.057,0.993,0,-0.0,-1.06,0.82,-0.78
448,2026-07-26T15:19:16.880,35.7515947,-82.8697772,2413.3,0.06,0.056,0.995,0,-0.0,-1.27,0.78,-0.75
449,2026-07-26T15:19:16.920,35.7515946,-82.8697772,2413.3,0.09,0.056,0.995,0,0.1,-1.42,0.75,-0.74
450,2026-07-26T15:19:16.960,35.7515946,-82.8697772,2413.3,0.11,0.056,0.997,0,0.2,-1.50,0.71,-0.74
451,2026-07-26T15:19:17.000,35.7515946,-82.8697772,2413.3,0.03,0.057,0.998,0,0.2,-1.50,0.67,-0.75
452,2026-07-26T15:19:17.040,35.7515946,-82.8697772,2413.3,0.04,0.057,0.999,0,0.2,-1.41,0.65,-0.80
453,2026-07-26T15:19:17.080,35.7515946,-82.8697772,2413.3,0.05,0.059,0.997,0,0.3,-1.20,0.59,-0.87
454,2026-07-26T15:19:17.120,35.7515946,-82.8697774,2413.3,0.03,0.058,0.994,0,0.3,-0.97,0.58,-0.95
455,2026-07-26T15:19:17.160,35.7515946,-82.8697774,2413.3,0.05,0.057,0.991,0,0.4,-0.71,0.59,-1.02
456,2026-07-26T15:19:17.200,35.7515946,-82.8697774,2413.3,0.09,0.056,0.981,0,0.4,-0.44,0.63,-1.09
457,2026-07-26T15:19:17.240,35.7515946,-82.8697774,2413.3,0.11,0.055,0.968,0,0.5,-0.13,0.74,-1.17
458,2026-07-26T15:19:17.280,35.7515946,-82.8697774,2413.3,0.05,0.054,0.955,0,0.5,0.30,1.03,-1.38
459,2026-07-26T15:19:17.320,35.7515946,-82.8697774,2413.3,0.15,0.054,0.948,0,0.6,0.84,1.44,-1.75
460,2026-07-26T15:19:17.360,35.7515946,-82.8697772,2413.2,0.21,0.053,0.956,0,0.6,1.47,1.82,-2.25
461,2026-07-26T15:19:17.400,35.7515946,-82.8697772,2413.2,0.23,0.056,0.978,0,0.7,2.09,2.08,-2.78
462,2026-07-26T15:19:17.440,35.7515946,-82.8697772,2413.2,0.24,0.059,1.012,0,0.5,2.58,2.07,-3.19
463,2026-07-26T15:19:17.480,35.7515947,-82.8697772,2413.2,0.11,0.066,1.042,0,0.2,2.89,1.73,-3.30
464,2026-07-26T15:19:17.520,35.7515947,-82.8697772,2413.3,0.11,0.074,1.057,0,0.2,3.09,1.19,-3.07
465,2026-07-26T15:19:17.560,35.7515947,-82.8697772,2413.2,0.13,0.078,1.057,0,0.2,3.23,0.60,-2.56
466,2026-07-26T15:19:17.600,35.7515947,-82.8697772,2413.2,0.15,0.078,1.050,0,0.2,3.38,0.07,-1.89
467,2026-07-26T15:19:17.640,35.7515947,-82.8697772,2413.2,0.20,0.074,1.034,0,0.2,3.49,-0.37,-1.22
468,2026-07-26T15:19:17.680,35.7515947,-82.8697772,2413.2,0.17,0.067,1.020,0,0.2,3.46,-0.74,-0.66
469,2026-07-26T15:19:17.720,35.7515947,-82.8697772,2413.2,0.09,0.058,1.003,0,-0.2,3.28,-1.02,-0.32
470,2026-07-26T15:19:17.760,35.7515947,-82.8697772,2413.3,0.05,0.051,0.986,0,-0.5,2.98,-1.19,-0.22
471,2026-07-26T15:19:17.800,35.7515947,-82.8697772,2413.3,0.06,0.046,0.967,0,-0.8,2.73,-1.26,-0.29
472,2026-07-26T15:19:17.840,35.7515947,-82.8697772,2413.2,0.20,0.044,0.955,0,-1.1,2.59,-1.17,-0.51
473,2026-07-26T15:19:17.880,35.7515947,-82.8697772,2413.2,0.19,0.046,0.949,0,-1.4,2.58,-0.98,-0.78
474,2026-07-26T15:19:17.920,35.7515947,-82.8697772,2413.2,0.16,0.057,0.943,0,-1.7,2.52,-0.78,-0.98
475,2026-07-26T15:19:17.960,35.7515946,-82.8697772,2413.2,0.04,0.066,0.944,0,-2.1,2.22,-0.52,-1.08
476,2026-07-26T15:19:18.000,35.7515946,-82.8697772,2413.2,0.04,0.077,0.941,0,-2.5,1.79,-0.28,-1.10
477,2026-07-26T15:19:18.040,35.7515946,-82.8697772,2413.2,0.13,0.086,0.939,0,-2.9,1.11,0.02,-1.00
478,2026-07-26T15:19:18.080,35.7515946,-82.8697772,2413.1,0.18,0.098,0.930,0,-3.4,0.16,0.45,-0.80
479,2026-07-26T15:19:18.120,35.7515946,-82.8697774,2413.1,0.22,0.105,0.934,0,-3.7,-0.92,1.04,-0.55
480,2026-07-26T15:19:18.160,35.7515945,-82.8697774,2413.1,0.21,0.110,0.941,0,-4.1,-2.05,1.65,-0.31
481,2026-07-26T15:19:18.200,35.7515945,-82.8697774,2413.1,0.27,0.110,0.957,0,-4.4,-3.25,2.32,-0.11
482,2026-07-26T15:19:18.240,35.7515945,-82.8697774,2413.1,0.26,0.107,0.974,0,-3.4,-4.37,2.88,0.01
483,2026-07-26T15:19:18.280,35.7515945,-82.8697776,2413.0,0.35,0.096,0.992,0,-3.3,-5.25,3.28,0.07
484,2026-07-26T15:19:18.320,35.7515945,-82.8697776,2413.0,0.32,0.083,1.009,0,-3.0,-5.95,3.46,0.06
485,2026-07-26T15:19:18.360,35.7515944,-82.8697776,2413.0,0.22,0.066,1.016,0,-2.8,-6.51,3.41,0.05
486,2026-07-26T15:19:18.400,35.7515944,-82.8697776,2413.0,0.28,0.050,1.016,0,-2.6,-7.01,3.18,0.05
487,2026-07-26T15:19:18.440,35.7515944,-82.8697777,2413.0,0.31,0.034,1.009,0,-2.5,-7.59,2.76,0.05
488,2026-07-26T15:19:18.480,35.7515943,-82.8697779,2412.9,0.47,0.023,1.000,0,-2.4,-8.29,2.31,0.08
489,2026-07-26T15:19:18.520,35.7515943,-82.8697779,2412.9,0.49,0.017,0.991,0,-1.9,-9.08,1.85,0.12
490,2026-07-26T15:19:18.560,35.7515942,-82.8697781,2412.9,0.51,0.024,0.978,0,-1.5,-9.90,1.40,0.10
491,2026-07-26T15:19:18.600,35.7515940,-82.8697781,2412.9,0.38,0.030,0.977,0,-1.2,-10.63,1.07,0.03
492,2026-07-26T15:19:18.640,35.7515940,-82.8697781,2412.8,0.29,0.037,0.980,0,-1.3,-11.14,0.82,-0.11
493,2026-07-26T15:19:18.680,35.7515940,-82.8697782,2412.8,0.33,0.044,0.984,0,-1.4,-11.40,0.59,-0.33
494,2026-07-26T15:19:18.720,35.7515940,-82.8697783,2412.8,0.29,0.050,0.988,0,-1.3,-11.37,0.42,-0.55
495,2026-07-26T15:19:18.760,35.7515939,-82.8697783,2412.7,0.30,0.054,0.994,0,-1.2,-11.01,0.34,-0.69
496,2026-07-26T15:19:18.800,35.7515939,-82.8697784,2412.7,0.30,0.062,0.990,0,-0.9,-10.42,0.30,-0.74
497,2026-07-26T15:19:18.840,35.7515937,-82.8697785,2412.7,0.25,0.072,0.985,0,-0.8,-9.69,0.41,-0.69
498,2026-07-26T15:19:18.880,35.7515937,-82.8697786,2412.7,0.28,0.078,0.986,0,-0.9,-8.84,0.59,-0.59
499,2026-07-26T15:19:18.920,35.7515937,-82.8697786,2412.6,0.18,0.084,0.991,0,-1.0,-7.98,0.79,-0.48
500,2026-07-26T15:19:18.960,35.7515937,-82.8697786,2412.6,0.16,0.079,1.010,0,-0.9,-7.09,0.78,-0.37
501,2026-07-26T15:19:19.000,35.7515936,-82.8697786,2412.6,0.22,0.071,1.030,0,-1.0,-6.34,0.66,-0.27
502,2026-07-26T15:19:19.040,35.7515935,-82.8697786,2412.6,0.17,0.059,1.047,0,-0.9,-5.72,0.32,-0.19
503,2026-07-26T15:19:19.080,35.7515935,-82.8697786,2412.6,0.24,0.055,1.041,0,-0.9,-5.22,-0.13,-0.13
504,2026-07-26T15:19:19.120,35.7515934,-82.8697786,2412.6,0.28,0.053,1.025,0,-0.5,-4.82,-0.56,-0.11
505,2026-07-26T15:19:19.160,35.7515934,-82.8697788,2412.6,0.22,0.058,0.997,0,0.0,-4.53,-0.84,-0.17
506,2026-07-26T15:19:19.200,35.7515933,-82.8697788,2412.5,0.11,0.065,0.970,0,0.1,-4.27,-0.92,-0.28
507,2026-07-26T15:19:19.240,35.7515932,-82.8697788,2412.5,0.02,0.072,0.944,0,0.2,-4.08,-0.82,-0.37
508,2026-07-26T15:19:19.280,35.7515932,-82.8697788,2412.5,0.18,0.076,0.936,0,-0.0,-4.01,-0.51,-0.43
509,2026-07-26T15:19:19.320,35.7515931,-82.8697788,2412.5,0.20,0.079,0.935,0,-0.1,-4.05,-0.15,-0.46
510,2026-07-26T15:19:19.360,35.7515931,-82.8697788,2412.4,0.25,0.081,0.940,0,-0.1,-4.18,0.27,-0.49
511,2026-07-26T15:19:19.400,35.7515930,-82.8697788,2412.4,0.24,0.074,0.959,0,-0.5,-4.30,0.72,-0.58
512,2026-07-26T15:19:19.440,35.7515930,-82.8697788,2412.4,0.11,0.071,0.971,0,-0.8,-4.17,0.83,-0.71
513,2026-07-26T15:19:19.480,35.7515929,-82.8697788,2412.3,0.15,0.069,0.982,0,-0.9,-3.80,0.87,-0.84
514,2026-07-26T15:19:19.520,35.7515928,-82.8697788,2412.3,0.19,0.068,0.990,0,-1.0,-3.19,0.79,-0.92
515,2026-07-26T15:19:19.560,35.7515928,-82.8697788,2412.3,0.09,0.075,0.987,0,-1.1,-2.31,0.60,-0.93
516,2026-07-26T15:19:19.600,35.7515928,-82.8697788,2412.3,0.12,0.078,0.986,0,-1.3,-1.42,0.64,-0.84
517,2026-07-26T15:19:19.640,35.7515928,-82.8697788,2412.3,0.19,0.077,0.984,0,-1.4,-0.50,0.73,-0.77
518,2026-07-26T15:19:19.680,35.7515928,-82.8697788,2412.2,0.10,0.072,0.986,0,-1.5,0.38,0.85,-0.72
519,2026-07-26T15:19:19.720,35.7515927,-82.8697788,2412.2,0.16,0.069,0.986,0,-1.6,1.08,0.93,-0.76
520,2026-07-26T15:19:19.760,35.7515927,-82.8697788,2412.2,0.23,0.064,0.990,0,-1.6,1.59,1.01,-0.86
521,2026-07-26T15:19:19.800,35.7515925,-82.8697788,2412.2,0.20,0.064,0.991,0,-0.5,1.97,0.92,-0.95
522,2026-07-26T15:19:19.840,35.7515925,-82.8697788,2412.1,0.06,0.066,0.992,0,-0.5,2.04,0.85,-1.04
523,2026-07-26T15:19:19.880,35.7515925,-82.8697788,2412.1,0.07,0.067,0.989,0,-1.1,1.97,0.75,-1.09
524,2026-07-26T15:19:19.920,35.7515924,-82.8697788,2412.1,0.03,0.069,0.986,0,-1.2,1.86,0.72,-1.11
525,2026-07-26T15:19:19.960,35.7515924,-82.8697787,2412.1,0.08,0.070,0.979,0,-1.4,1.77,0.76,-1.13
526,2026-07-26T15:19:20.000,35.7515923,-82.8697787,2412.1,0.14,0.073,0.970,0,-1.5,1.74,0.84,-1.15
527,2026-07-26T15:19:20.040,35.7515923,-82.8697787,2412.0,0.11,0.075,0.967,0,-1.7,1.88,1.02,-1.17
528,2026-07-26T15:19:20.080,35.7515923,-82.8697787,2412.0,0.16,0.077,0.962,0,-1.8,2.08,1.26,-1.19
529,2026-07-26T15:19:20.120,35.7515923,-82.8697786,2412.0,0.16,0.075,0.965,0,-2.0,2.35,1.52,-1.18
530,2026-07-26T15:19:20.160,35.7515922,-82.8697786,2412.0,0.13,0.071,0.971,0,-2.2,2.59,1.71,-1.15
531,2026-07-26T15:19:20.200,35.7515922,-82.8697786,2411.9,0.10,0.070,0.976,0,-2.3,2.82,1.89,-1.12
532,2026-07-26T15:19:20.240,35.7515922,-82.8697786,2411.9,0.13,0.068,0.980,0,-2.5,2.97,1.97,-1.06
533,2026-07-26T15:19:20.280,35.7515922,-82.8697785,2411.9,0.13,0.067,0.987,0,-2.6,3.04,2.04,-1.02
534,2026-07-26T15:19:20.320,35.7515922,-82.8697785,2411.9,0.14,0.068,0.992,0,-2.7,3.02,2.06,-0.98
535,2026-07-26T15:19:20.360,35.7515922,-82.8697785,2411.8,0.28,0.068,0.997,0,-2.8,2.92,2.05,-0.95
536,2026-07-26T15:19:20.400,35.7515922,-82.8697785,2411.8,0.13,0.064,1.007,0,-1.0,2.71,1.98,-0.92
537,2026-07-26T15:19:20.440,35.7515922,-82.8697785,2411.8,0.05,0.058,1.016,0,-1.0,2.41,1.81,-0.93
538,2026-07-26T15:19:20.480,35.7515922,-82.8697785,2411.8,0.06,0.052,1.023,0,-1.0,2.06,1.54,-0.94
539,2026-07-26T15:19:20.520,35.7515921,-82.8697784,2411.7,0.11,0.049,1.018,0,-0.9,1.70,1.22,-0.95
540,2026-07-26T15:19:20.560,35.7515921,-82.8697784,2411.7,0.10,0.050,1.011,0,-0.8,1.32,0.94,-0.95
541,2026-07-26T15:19:20.600,35.7515921,-82.8697784,2411.7,0.06,0.054,0.999,0,-0.8,0.93,0.71,-0.94
542,2026-07-26T15:19:20.640,35.7515921,-82.8697784,2411.7,0.08,0.061,0.990,0,-0.7,0.54,0.62,-0.91
543,2026-07-26T15:19:20.680,35.7515919,-82.8697784,2411.7,0.08,0.065,0.985,0,-0.6,0.11,0.59,-0.87
544,2026-07-26T15:19:20.720,35.7515919,-82.8697785,2411.6,0.10,0.065,0.986,0,-0.6,-0.31,0.63,-0.86
545,2026-07-26T15:19:20.760,35.7515919,-82.8697785,2411.6,0.02,0.063,0.990,0,-0.5,-0.69,0.66,-0.85
546,2026-07-26T15:19:20.800,35.7515919,-82.8697785,2411.6,0.04,0.063,0.990,0,-0.4,-0.98,0.69,-0.86
547,2026-07-26T15:19:20.840,35.7515918,-82.8697784,2411.6,0.06,0.064,0.988,0,-0.4,-1.17,0.69,-0.87
548,2026-07-26T15:19:20.880,35.7515918,-82.8697784,2411.5,0.06,0.066,0.985,0,-0.3,-1.24,0.71,-0.86
549,2026-07-26T15:19:20.920,35.7515918,-82.8697785,2411.5,0.03,0.067,0.985,0,-0.3,-1.24,0.73,-0.85
550,2026-07-26T15:19:20.960,35.7515918,-82.8697785,2411.5,0.04,0.067,0.984,0,-0.3,-1.19,0.75,-0.83
551,2026-07-26T15:19:21.000,35.7515918,-82.8697785,2411.5,0.05,0.065,0.988,0,-0.2,-1.12,0.76,-0.82
552,2026-07-26T15:19:21.040,35.7515917,-82.8697785,2411.5,0.03,0.063,0.992,0,-0.2,-1.04,0.73,-0.82
553,2026-07-26T15:19:21.080,35.7515917,-82.8697785,2411.4,0.06,0.065,0.989,0,-0.2,-0.91,0.70,-0.84
554,2026-07-26T15:19:21.120,35.7515917,-82.8697785,2411.4,0.09,0.065,0.989,0,-0.2,-0.74,0.66,-0.86
555,2026-07-26T15:19:21.160,35.7515917,-82.8697785,2411.4,0.06,0.067,0.984,0,-0.1,-0.51,0.65,-0.89
556,2026-07-26T15:19:21.200,35.7515917,-82.8697784,2411.4,0.12,0.068,0.981,0,-0.1,-0.23,0.68,-0.91
557,2026-07-26T15:19:21.240,35.7515917,-82.8697784,2411.4,0.13,0.068,0.979,0,-0.1,0.08,0.72,-0.93
558,2026-07-26T15:19:21.280,35.7515917,-82.8697784,2411.4,0.11,0.067,0.983,0,-0.1,0.42,0.80,-0.95
559,2026-07-26T15:19:21.320,35.7515917,-82.8697784,2411.3,0.05,0.069,0.979,0,-0.1,0.81,0.84,-0.97
560,2026-07-26T15:19:21.360,35.7515917,-82.8697784,2411.3,0.09,0.070,0.980,0,-0.1,1.21,0.90,-0.99
561,2026-07-26T15:19:21.400,35.7515917,-82.8697784,2411.3,0.12,0.071,0.982,0,-0.1,1.63,0.95,-1.02
562,2026-07-26T15:19:21.440,35.7515917,-82.8697783,2411.3,0.16,0.071,0.980,0,-0.1,2.04,1.02,-1.05
563,2026-07-26T15:19:21.480,35.7515917,-82.8697783,2411.3,0.11,0.071,0.981,0,-0.1,2.47,1.09,-1.08
564,2026-07-26T15:19:21.520,35.7515917,-82.8697783,2411.3,0.15,0.070,0.982,0,-0.0,2.88,1.19,-1.09
565,2026-07-26T15:19:21.560,35.7515917,-82.8697783,2411.2,0.15,0.068,0.984,0,-0.0,3.25,1.28,-1.09
566,2026-07-26T15:19:21.600,35.7515917,-82.8697782,2411.2,0.18,0.067,0.983,0,-0.0,3.56,1.35,-1.07
567,2026-07-26T15:19:21.640,35.7515917,-82.8697782,2411.2,0.19,0.064,0.988,0,-0.0,3.77,1.40,-1.05
568,2026-07-26T15:19:21.680,35.7515917,-82.8697782,2411.2,0.13,0.063,0.989,0,-0.0,3.89,1.39,-1.04
569,2026-07-26T15:19:21.720,35.7515918,-82.8697782,2411.2,0.12,0.061,0.991,0,-0.0,3.91,1.38,-1.04
570,2026-07-26T15:19:21.760,35.7515918,-82.8697782,2411.2,0.12,0.060,0.993,0,-0.0,3.86,1.32,-1.07
571,2026-07-26T15:19:21.800,35.7515918,-82.8697782,2411.1,0.10,0.059,0.994,0,-0.0,3.75,1.27,-1.09
572,2026-07-26T15:19:21.840,35.7515918,-82.8697782,2411.1,0.13,0.060,0.995,0,-0.0,3.59,1.18,-1.11
573,2026-07-26T15:19:21.880,35.7515918,-82.8697782,2411.1,0.09,0.060,0.995,0,-0.0,3.39,1.06,-1.12
574,2026-07-26T15:19:21.920,35.7515918,-82.8697782,2411.1,0.10,0.060,0.997,0,-0.0,3.15,0.91,-1.11
575,2026-07-26T15:19:21.960,35.7515918,-82.8697781,2411.1,0.02,0.060,0.997,0,-0.0,2.83,0.75,-1.08
576,2026-07-26T15:19:22.000,35.7515918,-82.8697781,2411.1,0.08,0.060,0.998,0,-0.0,2.53,0.59,-1.04
577,2026-07-26T15:19:22.040,35.7515918,-82.8697781,2411.1,0.09,0.059,0.994,0,-0.0,2.22,0.45,-1.00
578,2026-07-26T15:19:22.080,35.7515918,-82.8697781,2411.1,0.08,0.060,0.991,0,-0.0,1.89,0.39,-0.97
579,2026-07-26T15:19:22.120,35.7515919,-82.8697781,2411.0,0.04,0.061,0.989,0,-0.0,1.60,0.34,-0.95
580,2026-07-26T15:19:22.160,35.7515919,-82.8697781,2411.0,0.08,0.063,0.987,0,-0.0,1.44,0.33,-0.95
581,2026-07-26T15:19:22.200,35.7515919,-82.8697781,2411.0,0.03,0.066,0.984,0,-0.0,1.36,0.35,-0.98
582,2026-07-26T15:19:22.240,35.7515919,-82.8697781,2411.0,0.07,0.069,0.982,0,-0.0,1.43,0.38,-1.02
583,2026-07-26T15:19:22.280,35.7515919,-82.8697781,2411.0,0.09,0.075,0.972,0,0.4,1.65,0.45,-1.05
584,2026-07-26T15:19:22.320,35.7515919,-82.8697780,2411.0,0.13,0.075,0.970,0,0.5,1.91,0.57,-1.05
585,2026-07-26T15:19:22.360,35.7515919,-82.8697780,2411.0,0.15,0.071,0.971,0,0.7,2.03,0.75,-1.02
586,2026-07-26T15:19:22.400,35.7515919,-82.8697780,2410.9,0.10,0.067,0.973,0,1.0,2.07,0.89,-0.95
587,2026-07-26T15:19:22.440,35.7515918,-82.8697780,2410.9,0.01,0.064,0.972,0,1.1,1.91,0.99,-0.88
588,2026-07-26T15:19:22.480,35.7515918,-82.8697780,2410.9,0.05,0.058,0.977,0,1.2,1.63,1.07,-0.83
589,2026-07-26T15:19:22.520,35.7515918,-82.8697780,2410.9,0.10,0.052,0.982,0,1.4,1.39,1.09,-0.78
590,2026-07-26T15:19:22.560,35.7515918,-82.8697780,2410.9,0.04,0.044,0.992,0,1.7,1.18,1.07,-0.75
591,2026-07-26T15:19:22.600,35.7515918,-82.8697780,2410.8,0.08,0.040,0.995,0,1.8,0.97,1.03,-0.76
592,2026-07-26T15:19:22.640,35.7515917,-82.8697780,2410.8,0.10,0.036,0.995,0,2.0,1.02,0.96,-0.72
593,2026-07-26T15:19:22.680,35.7515917,-82.8697780,2410.8,0.22,0.026,1.001,0,2.1,1.05,0.96,-0.66
594,2026-07-26T15:19:22.720,35.7515916,-82.8697780,2410.8,0.18,0.014,1.013,0,2.3,0.92,0.91,-0.61
595,2026-07-26T15:19:22.760,35.7515916,-82.8697780,2410.8,0.26,0.008,1.014,0,2.5,0.95,0.80,-0.46
596,2026-07-26T15:19:22.800,35.7515916,-82.8697780,2410.8,0.26,0.009,1.008,0,1.5,0.93,0.70,-0.27
597,2026-07-26T15:19:22.840,35.7515916,-82.8697778,2410.8,0.26,0.011,1.004,0,1.2,0.64,0.78,-0.11
598,2026-07-26T15:19:22.880,35.7515915,-82.8697778,2410.7,0.36,0.010,1.002,0,1.0,0.30,0.81,-0.04
599,2026-07-26T15:19:22.920,35.7515914,-82.8697778,2410.7,0.28,0.011,0.990,0,0.5,0.26,0.84,0.04
600,2026-07-26T15:19:22.960,35.7515914,-82.8697778,2410.7,0.43,0.017,0.972,0,0.5,0.09,0.93,0.05
601,2026-07-26T15:19:23.040,35.7515910,-82.8697778,2410.7,0.77,0.010,0.965,0,0.7,-0.25,1.04,0.11
602,2026-07-26T15:19:23.080,35.7515909,-82.8697778,2410.7,0.84,0.003,0.964,0,0.4,-0.34,1.01,0.30
603,2026-07-26T15:19:23.120,35.7515908,-82.8697777,2410.7,0.89,-0.003,0.969,0,0.3,-0.50,0.93,0.55
604,2026-07-26T15:19:23.160,35.7515905,-82.8697777,2410.7,0.96,-0.007,0.978,0,0.5,-0.45,0.79,0.94
605,2026-07-26T15:19:23.200,35.7515904,-82.8697776,2410.7,0.93,-0.011,0.991,0,0.1,-0.59,0.70,1.30
606,2026-07-26T15:19:23.240,35.7515903,-82.8697776,2410.7,0.87,-0.010,0.989,0,-0.1,-0.53,0.63,1.64
607,2026-07-26T15:19:23.280,35.7515902,-82.8697775,2410.7,0.80,-0.012,0.989,0,-0.5,-0.67,0.61,1.88
608,2026-07-26T15:19:23.320,35.7515901,-82.8697775,2410.7,0.81,-0.018,0.994,0,-1.0,-0.29,0.60,2.27
609,2026-07-26T15:19:23.360,35.7515898,-82.8697775,2410.7,0.97,-0.023,0.996,0,-1.5,-0.47,0.79,2.55
610,2026-07-26T15:19:23.400,35.7515896,-82.8697773,2410.6,1.27,-0.029,0.994,0,-1.7,-0.45,0.98,2.93
611,2026-07-26T15:19:23.440,35.7515893,-82.8697773,2410.6,1.46,-0.041,0.997,0,-1.5,-0.45,1.17,3.33
612,2026-07-26T15:19:23.480,35.7515891,-82.8697771,2410.6,1.59,-0.053,1.004,0,-1.2,-0.11,1.32,3.88
613,2026-07-26T15:19:23.520,35.7515887,-82.8697771,2410.6,1.65,-0.058,1.004,0,-1.1,-0.40,1.53,4.32
614,2026-07-26T15:19:23.560,35.7515885,-82.8697771,2410.6,1.52,-0.061,1.000,0,-1.3,-0.32,1.64,4.84
615,2026-07-26T15:19:23.600,35.7515883,-82.8697771,2410.6,1.40,-0.059,0.992,0,-1.8,-0.39,1.70,5.25
616,2026-07-26T15:19:23.640,35.7515879,-82.8697770,2410.5,1.68,-0.058,0.992,0,-2.3,0.00,1.73,5.64
617,2026-07-26T15:19:23.680,35.7515875,-82.8697769,2410.5,2.24,-0.056,0.988,0,-2.7,0.26,1.83,5.81
618,2026-07-26T15:19:23.720,35.7515873,-82.8697766,2410.5,2.29,-0.054,0.990,0,-1.8,0.86,1.86,5.83
619,2026-07-26T15:19:23.760,35.7515868,-82.8697765,2410.5,2.10,-0.055,0.987,0,-0.9,1.70,1.92,5.74
620,2026-07-26T15:19:23.800,35.7515866,-82.8697763,2410.5,1.93,-0.067,1.005,0,-0.7,2.73,1.95,5.54
621,2026-07-26T15:19:23.840,35.7515862,-82.8697761,2410.5,2.22,-0.066,1.001,0,-0.6,3.64,1.86,5.27
622,2026-07-26T15:19:23.880,35.7515859,-82.8697759,2410.5,2.48,-0.073,1.010,0,-0.1,4.55,1.70,5.05
623,2026-07-26T15:19:23.920,35.7515853,-82.8697757,2410.5,2.91,-0.069,1.002,0,0.3,5.25,1.46,4.92
624,2026-07-26T15:19:23.960,35.7515848,-82.8697756,2410.5,3.29,-0.064,0.993,0,-0.3,5.74,1.22,4.92
625,2026-07-26T15:19:24.040,35.7515837,-82.8697751,2410.5,3.28,-0.069,0.992,0,-1.6,6.54,1.10,5.17
626,2026-07-26T15:19:24.080,35.7515831,-82.8697747,2410.5,3.42,-0.073,0.997,0,-1.5,7.19,1.01,5.57
627,2026-07-26T15:19:24.120,35.7515826,-82.8697745,2410.5,3.35,-0.073,0.988,0,-0.9,7.59,1.06,6.11
628,2026-07-26T15:19:24.160,35.7515820,-82.8697742,2410.5,3.57,-0.086,0.999,0,-0.9,8.25,1.08,6.84
629,2026-07-26T15:19:24.200,35.7515816,-82.8697740,2410.5,3.50,-0.083,0.995,0,-1.2,8.49,1.11,7.73
630,2026-07-26T15:19:24.240,35.7515810,-82.8697737,2410.5,3.73,-0.077,0.984,0,-1.7,8.30,1.24,8.74
631,2026-07-26T15:19:24.280,35.7515804,-82.8697735,2410.5,3.85,-0.067,0.967,0,-2.1,7.62,1.48,9.93
632,2026-07-26T15:19:24.320,35.7515798,-82.8697730,2410.5,3.99,-0.069,0.977,0,-2.3,7.34,1.70,11.19
633,2026-07-26T15:19:24.360,35.7515790,-82.8697728,2410.5,4.19,-0.059,0.978,0,-2.2,6.78,1.89,12.38
634,2026-07-26T15:19:24.400,35.7515783,-82.8697723,2410.5,4.29,-0.062,0.988,0,-2.2,6.59,2.16,13.59
635,2026-07-26T15:19:24.440,35.7515776,-82.8697721,2410.5,4.36,-0.066,1.010,0,-2.9,6.93,2.21,14.78
636,2026-07-26T15:19:24.480,35.7515770,-82.8697716,2410.4,4.17,-0.067,1.016,0,-3.4,7.42,2.21,16.04
637,2026-07-26T15:19:24.520,35.7515764,-82.8697712,2410.4,4.61,-0.065,1.015,0,-3.6,7.60,2.19,17.29
638,2026-07-26T15:19:24.560,35.7515757,-82.8697708,2410.4,4.57,-0.057,0.996,0,-3.5,7.56,2.35,18.57
639,2026-07-26T15:19:24.600,35.7515749,-82.8697704,2410.5,4.78,-0.057,0.988,0,-3.4,7.87,2.56,19.90
640,2026-07-26T15:19:24.640,35.7515742,-82.8697700,2410.4,4.80,-0.046,0.961,0,-4.1,7.55,2.93,21.04
641,2026-07-26T15:19:24.680,35.7515735,-82.8697694,2410.4,4.83,-0.052,0.969,0,-4.9,7.50,3.46,22.05
642,2026-07-26T15:19:24.720,35.7515727,-82.8697689,2410.4,5.06,-0.050,0.974,0,-4.6,7.65,3.84,22.95
643,2026-07-26T15:19:24.760,35.7515720,-82.8697684,2410.4,5.02,-0.046,0.989,0,-4.6,7.74,4.15,23.73
644,2026-07-26T15:19:24.800,35.7515712,-82.8697678,2410.4,5.29,-0.033,0.998,0,-5.7,7.74,4.35,24.49
645,2026-07-26T15:19:24.840,35.7515705,-82.8697672,2410.3,5.49,-0.022,1.013,0,-5.9,7.94,4.32,25.32
646,2026-07-26T15:19:24.880,35.7515697,-82.8697667,2410.3,5.28,-0.001,1.010,0,-5.8,8.05,4.16,26.16
647,2026-07-26T15:19:24.920,35.7515690,-82.8697661,2410.4,5.01,0.010,1.007,0,-6.5,7.84,4.09,27.09
648,2026-07-26T15:19:24.960,35.7515683,-82.8697655,2410.4,5.12,0.020,0.999,0,-6.9,7.42,4.09,28.28
649,2026-07-26T15:19:25.000,35.7515675,-82.8697649,2410.4,5.33,0.024,1.000,0,-6.7,7.03,4.13,29.48
650,2026-07-26T15:19:25.040,35.7515668,-82.8697643,2410.4,5.37,0.029,0.995,0,-7.0,6.50,4.31,30.79
651,2026-07-26T15:19:25.080,35.7515660,-82.8697637,2410.4,5.11,0.030,0.992,0,-8.2,5.75,4.63,32.16
652,2026-07-26T15:19:25.120,35.7515654,-82.8697630,2410.5,5.45,0.038,0.984,0,-8.7,5.06,5.16,33.58
653,2026-07-26T15:19:25.160,35.7515647,-82.8697622,2410.4,5.59,0.042,0.982,0,-8.8,4.46,5.80,34.79
654,2026-07-26T15:19:25.200,35.7515642,-82.8697614,2410.4,5.36,0.051,0.972,0,-7.6,3.75,6.49,35.85
655,2026-07-26T15:19:25.240,35.7515636,-82.8697607,2410.3,5.36,0.052,0.972,0,-7.5,3.29,7.28,36.59
656,2026-07-26T15:19:25.280,35.7515630,-82.8697598,2410.2,5.50,0.051,0.979,0,-7.5,3.08,7.93,36.98
657,2026-07-26T15:19:25.320,35.7515624,-82.8697589,2410.3,5.66,0.045,0.986,0,-7.1,2.98,8.34,36.90
658,2026-07-26T15:19:25.360,35.7515617,-82.8697580,2410.3,5.94,0.036,1.007,0,-7.4,3.24,8.45,36.46
659,2026-07-26T15:19:25.400,35.7515611,-82.8697572,2410.4,5.76,0.030,1.017,0,-8.0,3.52,8.37,35.72
660,2026-07-26T15:19:25.440,35.7515607,-82.8697564,2410.5,5.13,0.032,1.015,0,-8.0,3.87,8.02,34.87
661,2026-07-26T15:19:25.480,35.7515601,-82.8697555,2410.5,5.44,0.037,1.009,0,-7.7,4.20,7.58,33.98
662,2026-07-26T15:19:25.520,35.7515595,-82.8697546,2410.5,5.69,0.045,1.000,0,-8.4,4.75,7.15,33.32
663,2026-07-26T15:19:25.560,35.7515590,-82.8697536,2410.5,5.77,0.056,0.989,0,-8.6,5.13,6.94,32.98
664,2026-07-26T15:19:25.600,35.7515585,-82.8697526,2410.5,5.76,0.063,0.983,0,-8.7,5.53,6.91,32.97
665,2026-07-26T15:19:25.640,35.7515579,-82.8697516,2410.5,5.86,0.064,0.990,0,-8.3,5.78,7.05,33.25
666,2026-07-26T15:19:25.680,35.7515574,-82.8697507,2410.5,5.80,0.065,0.999,0,-9.0,5.98,7.22,33.80
667,2026-07-26T15:19:25.720,35.7515569,-82.8697496,2410.5,5.71,0.071,1.005,0,-9.6,5.99,7.39,34.49
668,2026-07-26T15:19:25.760,35.7515566,-82.8697486,2410.5,5.80,0.078,1.010,0,-9.1,5.91,7.48,35.36
669,2026-07-26T15:19:25.800,35.7515562,-82.8697475,2410.5,5.79,0.086,1.010,0,-9.2,5.85,7.54,36.22
670,2026-07-26T15:19:25.840,35.7515557,-82.8697465,2410.5,5.81,0.090,1.006,0,-8.9,5.81,7.65,37.00
671,2026-07-26T15:19:25.880,35.7515554,-82.8697454,2410.5,5.74,0.088,1.003,0,-9.2,5.73,7.81,37.74
672,2026-07-26T15:19:25.920,35.7515551,-82.8697444,2410.5,5.57,0.082,1.002,0,-10.1,5.61,8.04,38.39
673,2026-07-26T15:19:25.960,35.7515547,-82.8697433,2410.5,5.66,0.073,0.998,0,-10.7,5.26,8.32,39.21
674,2026-07-26T15:19:26.000,35.7515545,-82.8697422,2410.5,5.72,0.069,0.992,0,-10.8,4.74,8.62,40.15
675,2026-07-26T15:19:26.040,35.7515541,-82.8697410,2410.5,5.97,0.067,0.989,0,-10.4,4.03,8.98,41.31
676,2026-07-26T15:19:26.080,35.7515538,-82.8697400,2410.5,5.67,0.062,0.993,0,-11.4,3.16,9.45,42.60
677,2026-07-26T15:19:26.120,35.7515537,-82.8697389,2410.5,5.47,0.059,0.997,0,-11.7,2.29,9.90,43.88
678,2026-07-26T15:19:26.160,35.7515535,-82.8697377,2410.4,5.67,0.051,1.008,0,-11.6,1.53,10.31,44.80
679,2026-07-26T15:19:26.200,35.7515534,-82.8697365,2410.4,5.97,0.037,1.030,0,-12.0,0.92,10.35,45.44
680,2026-07-26T15:19:26.240,35.7515532,-82.8697353,2410.5,6.00,0.032,1.035,0,-11.9,0.55,10.12,45.68
681,2026-07-26T15:19:26.280,35.7515531,-82.8697342,2410.5,5.89,0.032,1.035,0,-12.2,0.37,9.81,45.62
682,2026-07-26T15:19:26.320,35.7515530,-82.8697330,2410.5,6.00,0.032,1.031,0,-12.3,0.28,9.28,45.30
683,2026-07-26T15:19:26.360,35.7515530,-82.8697318,2410.5,5.71,0.032,1.032,0,-12.1,0.51,8.74,44.57
684,2026-07-26T15:19:26.400,35.7515530,-82.8697307,2410.5,5.86,0.030,1.029,0,-12.2,0.71,8.28,43.58
685,2026-07-26T15:19:26.440,35.7515531,-82.8697294,2410.4,6.17,0.031,1.017,0,-11.6,1.23,7.70,42.46
686,2026-07-26T15:19:26.480,35.7515532,-82.8697282,2410.4,5.99,0.030,1.011,0,-11.2,1.75,7.08,41.18
687,2026-07-26T15:19:26.520,35.7515531,-82.8697270,2410.5,6.11,0.026,1.011,0,-11.0,2.37,6.56,39.90
688,2026-07-26T15:19:26.560,35.7515533,-82.8697258,2410.5,6.22,0.028,1.006,0,-11.4,2.99,5.92,38.84
689,2026-07-26T15:19:26.600,35.7515534,-82.8697246,2410.5,6.25,0.035,0.995,0,-11.7,3.79,5.22,37.85
690,2026-07-26T15:19:26.640,35.7515537,-82.8697233,2410.5,6.04,0.034,1.004,0,-12.2,4.38,4.71,37.01
691,2026-07-26T15:19:26.680,35.7515539,-82.8697222,2410.5,6.24,0.040,0.994,0,-11.3,4.94,4.35,36.37
692,2026-07-26T15:19:26.720,35.7515542,-82.8697210,2410.5,6.10,0.047,0.989,0,-9.9,5.48,4.17,35.90
693,2026-07-26T15:19:26.760,35.7515545,-82.8697198,2410.5,6.04,0.049,0.990,0,-9.9,5.95,4.15,35.52
694,2026-07-26T15:19:26.800,35.7515548,-82.8697186,2410.4,6.16,0.050,0.992,0,-9.8,6.52,4.29,35.24
695,2026-07-26T15:19:26.840,35.7515551,-82.8697174,2410.4,6.50,0.052,0.991,0,-9.9,7.07,4.33,34.93
696,2026-07-26T15:19:26.880,35.7515556,-82.8697162,2410.4,6.51,0.060,0.983,0,-9.5,7.80,4.48,34.56
697,2026-07-26T15:19:26.920,35.7515559,-82.8697150,2410.5,6.50,0.063,0.982,0,-9.1,8.40,4.79,34.19
698,2026-07-26T15:19:26.960,35.7515563,-82.8697139,2410.4,6.19,0.072,0.971,0,-9.2,9.16,5.48,33.84
699,2026-07-26T15:19:27.000,35.7515568,-82.8697127,2410.4,6.20,0.077,0.968,0,-9.5,9.72,6.25,33.60
700,2026-07-26T15:19:27.040,35.7515574,-82.8697117,2410.3,6.22,0.080,0.968,0,-9.7,10.29,7.02,33.53
701,2026-07-26T15:19:27.080,35.7515580,-82.8697107,2410.3,6.63,0.085,0.964,0,-9.3,10.81,7.82,33.65
702,2026-07-26T15:19:27.120,35.7515584,-82.8697095,2410.2,6.65,0.085,0.962,0,-8.6,11.15,8.63,34.04
703,2026-07-26T15:19:27.160,35.7515589,-82.8697083,2410.2,6.72,0.088,0.953,0,-9.6,11.39,9.27,34.77
704,2026-07-26T15:19:27.200,35.7515594,-82.8697071,2410.2,6.59,0.090,0.944,0,-11.0,11.47,10.10,35.73
705,2026-07-26T15:19:27.240,35.7515598,-82.8697059,2410.1,6.40,0.092,0.935,0,-12.2,11.04,11.24,36.97
706,2026-07-26T15:19:27.280,35.7515604,-82.8697048,2410.0,6.25,0.089,0.943,0,-13.9,10.69,12.39,38.44
707,2026-07-26T15:19:27.320,35.7515611,-82.8697036,2409.9,6.57,0.094,0.948,0,-15.0,10.37,13.59,39.94
708,2026-07-26T15:19:27.360,35.7515617,-82.8697026,2409.9,6.68,0.091,0.973,0,-15.5,9.74,14.94,41.45
709,2026-07-26T15:19:27.400,35.7515623,-82.8697016,2409.8,6.94,0.085,1.003,0,-15.3,9.16,16.14,43.02
710,2026-07-26T15:19:27.440,35.7515631,-82.8697006,2409.9,6.91,0.083,1.019,0,-15.0,8.41,17.11,44.52
711,2026-07-26T15:19:27.480,35.7515638,-82.8696995,2410.0,6.94,0.075,1.039,0,-14.6,7.33,17.93,45.95
712,2026-07-26T15:19:27.520,35.7515647,-82.8696987,2409.8,7.04,0.057,1.062,0,-15.3,5.98,18.37,47.36
713,2026-07-26T15:19:27.560,35.7515656,-82.8696978,2409.9,7.09,0.052,1.060,0,-14.6,4.79,18.40,48.57
714,2026-07-26T15:19:27.600,35.7515665,-82.8696969,2409.9,7.09,0.044,1.056,0,-14.6,3.50,18.27,49.62
715,2026-07-26T15:19:27.640,35.7515673,-82.8696959,2409.8,7.49,0.034,1.060,0,-14.9,2.25,17.90,50.46
716,2026-07-26T15:19:27.680,35.7515683,-82.8696950,2409.8,7.71,0.032,1.060,0,-15.4,1.06,17.20,51.01
717,2026-07-26T15:19:27.720,35.7515693,-82.8696942,2409.7,7.48,0.039,1.059,0,-15.2,0.01,16.40,51.24
718,2026-07-26T15:19:27.760,35.7515703,-82.8696935,2409.7,7.21,0.045,1.070,0,-14.8,-1.12,15.52,51.23
719,2026-07-26T15:19:27.800,35.7515712,-82.8696930,2409.7,6.76,0.063,1.070,0,-14.3,-2.13,14.50,50.90
720,2026-07-26T15:19:27.840,35.7515723,-82.8696923,2409.5,7.29,0.079,1.068,0,-14.4,-3.01,13.70,50.29
721,2026-07-26T15:19:27.880,35.7515734,-82.8696916,2409.5,7.49,0.088,1.060,0,-13.3,-3.93,13.20,49.55
722,2026-07-26T15:19:27.920,35.7515744,-82.8696910,2409.6,7.37,0.097,1.038,0,-13.1,-4.45,12.88,48.57
723,2026-07-26T15:19:27.960,35.7515756,-82.8696906,2409.6,7.26,0.097,1.017,0,-13.7,-4.91,12.83,47.21
724,2026-07-26T15:19:28.000,35.7515764,-82.8696901,2409.7,7.02,0.091,1.005,0,-13.4,-5.18,12.91,45.88
725,2026-07-26T15:19:28.040,35.7515775,-82.8696897,2409.7,7.22,0.091,0.987,0,-12.5,-5.13,12.76,44.45
726,2026-07-26T15:19:28.080,35.7515787,-82.8696894,2409.7,7.12,0.095,0.977,0,-12.0,-5.09,12.62,42.99
727,2026-07-26T15:19:28.120,35.7515797,-82.8696889,2409.7,7.17,0.094,0.978,0,-12.1,-5.28,12.47,41.85
728,2026-07-26T15:19:28.160,35.7515806,-82.8696885,2409.7,6.73,0.092,0.990,0,-13.0,-5.48,12.20,41.09
729,2026-07-26T15:19:28.200,35.7515817,-82.8696882,2409.7,6.93,0.092,1.002,0,-13.6,-5.80,11.69,40.51
730,2026-07-26T15:19:28.240,35.7515829,-82.8696879,2409.7,7.48,0.092,1.024,0,-13.2,-6.32,11.20,40.16
731,2026-07-26T15:19:28.280,35.7515842,-82.8696877,2409.6,7.68,0.092,1.048,0,-12.2,-6.87,10.34,39.90
732,2026-07-26T15:19:28.320,35.7515854,-82.8696877,2409.6,7.09,0.099,1.056,0,-11.4,-7.37,9.46,39.59
733,2026-07-26T15:19:28.360,35.7515863,-82.8696874,2409.6,6.92,0.101,1.067,0,-10.7,-8.04,8.64,39.27
734,2026-07-26T15:19:28.400,35.7515874,-82.8696872,2409.6,7.03,0.105,1.057,0,-10.5,-8.56,7.79,38.84
735,2026-07-26T15:19:28.440,35.7515885,-82.8696872,2409.7,6.94,0.107,1.039,0,-11.2,-9.03,7.09,38.27
736,2026-07-26T15:19:28.480,35.7515896,-82.8696871,2409.6,6.85,0.104,1.018,0,-10.3,-9.40,6.56,37.54
737,2026-07-26T15:19:28.520,35.7515906,-82.8696871,2409.6,6.73,0.102,0.997,0,-10.4,-9.63,6.04,36.42
738,2026-07-26T15:19:28.560,35.7515917,-82.8696870,2409.7,7.00,0.100,0.981,0,-10.4,-9.62,5.67,34.91
739,2026-07-26T15:19:28.600,35.7515928,-82.8696871,2409.6,6.77,0.093,0.983,0,-11.1,-9.47,5.38,33.21
740,2026-07-26T15:19:28.640,35.7515939,-82.8696875,2409.6,7.02,0.094,0.981,0,-9.9,-9.11,4.98,31.25
741,2026-07-26T15:19:28.680,35.7515951,-82.8696877,2409.6,7.10,0.094,0.992,0,-8.1,-8.58,4.67,29.03
742,2026-07-26T15:19:28.720,35.7515961,-82.8696878,2409.6,6.75,0.091,1.008,0,-7.2,-7.93,4.10,26.83
743,2026-07-26T15:19:28.760,35.7515971,-82.8696879,2409.6,6.72,0.099,1.007,0,-7.5,-7.27,3.49,24.71
744,2026-07-26T15:19:28.800,35.7515981,-82.8696879,2409.6,6.76,0.106,1.008,0,-8.7,-6.69,3.03,22.71
745,2026-07-26T15:19:28.840,35.7515992,-82.8696883,2409.6,6.65,0.107,1.011,0,-8.5,-6.09,2.47,20.91
746,2026-07-26T15:19:28.880,35.7516002,-82.8696884,2409.6,6.87,0.117,0.991,0,-7.7,-5.55,2.00,19.35
747,2026-07-26T15:19:28.920,35.7516013,-82.8696887,2409.6,6.96,0.120,0.982,0,-7.2,-5.13,1.97,18.06
748,2026-07-26T15:19:28.960,35.7516024,-82.8696891,2409.5,6.54,0.120,0.967,0,-6.9,-4.73,2.03,16.94
749,2026-07-26T15:19:29.040,35.7516044,-82.8696895,2409.5,6.65,0.119,0.959,0,-6.6,-4.40,2.40,15.99
750,2026-07-26T15:19:29.080,35.7516054,-82.8696898,2409.6,6.56,0.116,0.958,0,-7.3,-4.16,3.00,15.20
751,2026-07-26T15:19:29.120,35.7516064,-82.8696903,2409.5,6.45,0.110,0.968,0,-6.8,-3.96,3.54,14.51
752,2026-07-26T15:19:29.160,35.7516073,-82.8696907,2409.5,6.49,0.107,0.981,0,-5.2,-3.72,3.93,13.84
753,2026-07-26T15:19:29.200,35.7516085,-82.8696910,2409.5,6.67,0.102,1.005,0,-4.2,-3.45,4.14,13.22
754,2026-07-26T15:19:29.240,35.7516095,-82.8696914,2409.4,6.68,0.103,1.013,0,-4.0,-3.08,4.02,12.55
755,2026-07-26T15:19:29.280,35.7516104,-82.8696919,2409.4,6.70,0.106,1.013,0,-4.3,-2.69,3.86,11.86
756,2026-07-26T15:19:29.320,35.7516115,-82.8696922,2409.5,6.50,0.104,1.012,0,-4.2,-2.25,3.57,11.15
757,2026-07-26T15:19:29.360,35.7516124,-82.8696925,2409.5,6.35,0.106,1.000,0,-4.7,-1.86,3.23,10.51
758,2026-07-26T15:19:29.400,35.7516133,-82.8696927,2409.5,6.37,0.108,0.986,0,-5.1,-1.53,3.02,10.02
759,2026-07-26T15:19:29.440,35.7516143,-82.8696932,2409.5,6.21,0.106,0.980,0,-5.1,-1.33,2.90,9.70
760,2026-07-26T15:19:29.480,35.7516152,-82.8696936,2409.4,6.46,0.106,0.976,0,-4.7,-1.23,2.78,9.53
761,2026-07-26T15:19:29.520,35.7516163,-82.8696941,2409.3,6.57,0.106,0.979,0,-4.1,-1.25,2.89,9.55
762,2026-07-26T15:19:29.560,35.7516172,-82.8696946,2409.3,6.65,0.104,0.991,0,-3.1,-1.35,2.88,9.67
763,2026-07-26T15:19:29.600,35.7516182,-82.8696949,2409.3,6.13,0.103,0.998,0,-2.4,-1.50,2.77,9.83
764,2026-07-26T15:19:29.640,35.7516191,-82.8696953,2409.3,6.05,0.099,1.013,0,-3.3,-1.68,2.50,9.97
765,2026-07-26T15:19:29.680,35.7516200,-82.8696956,2409.4,6.31,0.098,1.018,0,-4.5,-1.83,1.91,10.04
766,2026-07-26T15:19:29.720,35.7516208,-82.8696962,2409.4,6.44,0.098,1.015,0,-4.8,-1.94,1.22,9.97
767,2026-07-26T15:19:29.760,35.7516218,-82.8696967,2409.4,6.32,0.099,1.011,0,-3.9,-2.10,0.71,9.71
768,2026-07-26T15:19:29.800,35.7516226,-82.8696970,2409.3,6.15,0.095,1.000,0,-3.1,-2.03,0.48,9.32
769,2026-07-26T15:19:29.840,35.7516236,-82.8696974,2409.3,6.08,0.082,0.991,0,-3.1,-1.84,0.62,8.83
770,2026-07-26T15:19:29.880,35.7516245,-82.8696980,2409.3,5.98,0.064,0.981,0,-3.5,-1.62,1.15,8.23
771,2026-07-26T15:19:29.920,35.7516253,-82.8696986,2409.3,6.34,0.038,0.978,0,-3.0,-1.02,1.75,7.66
772,2026-07-26T15:19:29.960,35.7516262,-82.8696991,2409.3,6.62,0.005,0.993,0,-2.4,-0.65,2.30,6.96
773,2026-07-26T15:19:30.000,35.7516273,-82.8696996,2409.3,6.69,-0.019,1.012,0,-2.2,-0.30,2.52,6.33
774,2026-07-26T15:19:30.040,35.7516282,-82.8697001,2409.3,6.62,-0.020,0.998,0,-2.6,-0.39,2.40,5.72
775,2026-07-26T15:19:30.080,35.7516291,-82.8697006,2409.3,6.42,-0.026,1.004,0,-2.7,-0.13,2.00,5.34
776,2026-07-26T15:19:30.120,35.7516300,-82.8697013,2409.3,6.66,-0.025,1.000,0,-2.6,-0.30,1.42,5.02
777,2026-07-26T15:19:30.160,35.7516310,-82.8697018,2409.3,6.76,-0.015,0.974,0,-1.9,-0.37,0.83,4.92
778,2026-07-26T15:19:30.200,35.7516319,-82.8697025,2409.4,6.65,-0.021,0.966,0,-1.9,-0.49,0.62,4.93
779,2026-07-26T15:19:30.240,35.7516328,-82.8697030,2409.4,6.81,-0.034,0.972,0,-2.1,-0.29,0.69,5.02
780,2026-07-26T15:19:30.280,35.7516340,-82.8697035,2409.3,7.07,-0.044,0.972,0,-1.8,-0.15,0.83,5.05
781,2026-07-26T15:19:30.320,35.7516350,-82.8697042,2409.2,7.37,-0.058,0.983,0,-3.0,-0.23,1.13,5.00
782,2026-07-26T15:19:30.360,35.7516359,-82.8697049,2409.3,7.40,-0.071,1.006,0,-2.2,0.12,1.12,5.01
783,2026-07-26T15:19:30.400,35.7516371,-82.8697056,2409.2,7.54,-0.072,1.005,0,-2.1,0.21,0.88,5.00
784,2026-07-26T15:19:30.440,35.7516382,-82.8697063,2409.2,7.48,-0.081,1.022,0,-2.3,0.29,0.42,5.10
785,2026-07-26T15:19:30.480,35.7516392,-82.8697070,2409.3,7.63,-0.086,1.020,0,-2.1,0.11,-0.20,5.29
786,2026-07-26T15:19:30.520,35.7516402,-82.8697077,2409.3,7.75,-0.087,1.014,0,-2.1,0.20,-1.05,5.61
787,2026-07-26T15:19:30.560,35.7516413,-82.8697083,2409.3,7.81,-0.076,0.986,0,-2.7,-0.08,-1.78,5.92
788,2026-07-26T15:19:30.600,35.7516425,-82.8697090,2409.3,8.04,-0.062,0.962,0,-2.9,-0.37,-2.27,6.18
789,2026-07-26T15:19:30.640,35.7516437,-82.8697097,2409.2,8.27,-0.046,0.947,0,-3.2,-0.68,-2.40,6.33
790,2026-07-26T15:19:30.680,35.7516448,-82.8697106,2409.2,8.03,-0.044,0.963,0,-3.1,-0.94,-2.23,6.27
791,2026-07-26T15:19:30.720,35.7516459,-82.8697114,2409.3,8.21,-0.050,0.987,0,-2.1,-1.27,-1.94,6.05
792,2026-07-26T15:19:30.760,35.7516471,-82.8697121,2409.4,8.64,-0.058,1.002,0,-3.1,-1.18,-1.78,5.71
793,2026-07-26T15:19:30.800,35.7516484,-82.8697130,2409.3,9.05,-0.062,1.006,0,-3.4,-1.17,-1.53,5.30
794,2026-07-26T15:19:30.840,35.7516496,-82.8697138,2409.3,8.76,-0.064,0.992,0,-2.7,-1.21,-1.21,4.86
795,2026-07-26T15:19:30.880,35.7516507,-82.8697147,2409.2,8.42,-0.054,0.944,0,-2.5,-1.12,-0.43,4.53
796,2026-07-26T15:19:30.920,35.7516519,-82.8697156,2409.2,8.59,-0.053,0.927,0,-2.5,-0.73,0.61,4.24
797,2026-07-26T15:19:30.960,35.7516532,-82.8697164,2409.2,9.01,-0.057,0.937,0,-2.3,-0.74,2.05,3.90
798,2026-07-26T15:19:31.040,35.7516557,-82.8697183,2409.2,9.06,-0.059,0.970,0,-2.6,-0.76,3.24,3.57
799,2026-07-26T15:19:31.080,35.7516570,-82.8697193,2409.1,9.60,-0.062,1.003,0,-3.0,-0.07,3.98,3.48
800,2026-07-26T15:19:31.120,35.7516583,-82.8697202,2409.1,9.95,-0.055,1.035,0,-1.8,-0.15,4.17,3.29
801,2026-07-26T15:19:31.160,35.7516596,-82.8697212,2409.1,9.44,-0.042,1.041,0,-1.9,-0.49,4.00,3.11
802,2026-07-26T15:19:31.200,35.7516608,-82.8697221,2409.1,9.42,-0.030,1.045,0,-2.1,-0.54,3.51,3.03
803,2026-07-26T15:19:31.240,35.7516623,-82.8697231,2409.1,9.65,-0.024,1.052,0,-2.2,-0.89,2.83,2.85
804,2026-07-26T15:19:31.280,35.7516636,-82.8697241,2409.1,9.94,-0.008,1.040,0,-2.2,-1.16,1.86,2.51
805,2026-07-26T15:19:31.320,35.7516650,-82.8697252,2409.1,10.01,-0.001,1.048,0,-1.5,-1.06,0.91,2.10
806,2026-07-26T15:19:31.360,35.7516662,-82.8697262,2409.1,10.08,0.006,1.044,0,-2.0,-0.86,-0.21,1.62
807,2026-07-26T15:19:31.400,35.7516675,-82.8697272,2409.1,9.98,0.014,1.024,0,-1.5,-0.45,-1.34,1.17
808,2026-07-26T15:19:31.440,35.7516690,-82.8697283,2409.1,10.00,0.020,1.001,0,-1.3,-0.07,-2.30,0.72
809,2026-07-26T15:19:31.480,35.7516703,-82.8697293,2409.2,10.20,0.023,0.983,0,-1.4,0.25,-2.95,0.37
810,2026-07-26T15:19:31.520,35.7516716,-82.8697305,2409.1,10.11,0.031,0.957,0,-1.1,0.45,-3.30,0.08
811,2026-07-26T15:19:31.560,35.7516729,-82.8697315,2409.1,10.18,0.042,0.942,0,-0.6,1.01,-3.34,-0.02
812,2026-07-26T15:19:31.600,35.7516744,-82.8697326,2409.0,10.10,0.052,0.928,0,-0.9,1.13,-3.15,-0.06
813,2026-07-26T15:19:31.640,35.7516757,-82.8697336,2409.1,10.08,0.054,0.929,0,-1.4,1.44,-2.85,0.19
814,2026-07-26T15:19:31.680,35.7516771,-82.8697348,2409.1,10.21,0.062,0.921,0,-1.4,1.11,-2.43,0.53
815,2026-07-26T15:19:31.720,35.7516784,-82.8697358,2409.1,10.27,0.073,0.903,0,-1.0,1.09,-1.99,1.10
816,2026-07-26T15:19:31.760,35.7516797,-82.8697370,2409.1,10.23,0.083,0.892,0,-1.0,0.61,-1.18,1.67
817,2026-07-26T15:19:31.800,35.7516812,-82.8697381,2409.1,10.09,0.086,0.897,0,-1.0,0.33,-0.11,2.28
818,2026-07-26T15:19:31.840,35.7516825,-82.8697391,2409.0,10.22,0.080,0.924,0,-1.0,-0.07,1.18,2.81
819,2026-07-26T15:19:31.880,35.7516839,-82.8697403,2409.0,10.38,0.062,0.963,0,-1.0,-0.22,1.78,3.28
820,2026-07-26T15:19:31.920,35.7516853,-82.8697414,2409.0,10.37,0.044,0.997,0,-1.2,-0.74,1.98,3.50
821,2026-07-26T15:19:31.960,35.7516867,-82.8697425,2409.0,10.51,0.029,1.007,0,-1.4,-1.24,1.62,3.41
822,2026-07-26T15:19:32.040,35.7516894,-82.8697448,2408.9,10.46,0.033,1.002,0,-1.2,-1.87,1.12,3.03
823,2026-07-26T15:19:32.080,35.7516909,-82.8697460,2408.9,10.47,0.038,0.996,0,-1.0,-2.26,0.38,2.54
824,2026-07-26T15:19:32.120,35.7516923,-82.8697471,2408.8,10.52,0.041,1.009,0,-0.6,-2.66,-0.13,1.98
825,2026-07-26T15:19:32.160,35.7516936,-82.8697483,2408.8,10.46,0.048,1.010,0,-1.0,-2.65,-1.03,1.42
826,2026-07-26T15:19:32.200,35.7516951,-82.8697495,2408.9,10.97,0.058,1.012,0,-1.1,-2.26,-1.48,0.94
827,2026-07-26T15:19:32.240,35.7516965,-82.8697507,2408.9,11.06,0.057,1.020,0,-0.9,-1.82,-1.88,0.47
828,2026-07-26T15:19:32.280,35.7516979,-82.8697519,2408.8,10.83,0.070,0.989,0,-0.8,-1.27,-1.98,0.03
829,2026-07-26T15:19:32.320,35.7516993,-82.8697530,2408.8,10.48,0.082,0.964,0,-0.1,-0.99,-1.59,-0.32
830,2026-07-26T15:19:32.360,35.7517006,-82.8697541,2408.8,10.35,0.090,0.947,0,-0.5,-0.86,-0.79,-0.46
831,2026-07-26T15:19:32.400,35.7517020,-82.8697552,2408.8,10.40,0.095,0.943,0,-0.6,-1.11,0.00,-0.49
832,2026-07-26T15:19:32.440,35.7517033,-82.8697564,2408.8,10.46,0.105,0.928,0,-1.0,-1.34,0.89,-0.42
833,2026-07-26T15:19:32.480,35.7517047,-82.8697576,2408.7,10.42,0.104,0.950,0,-1.2,-1.65,1.98,-0.40
834,2026-07-26T15:19:32.520,35.7517061,-82.8697587,2408.7,10.42,0.105,0.963,0,-0.8,-1.78,2.85,-0.44
835,2026-07-26T15:19:32.560,35.7517075,-82.8697598,2408.7,10.59,0.098,0.987,0,-1.4,-1.78,3.55,-0.66
836,2026-07-26T15:19:32.600,35.7517089,-82.8697610,2408.7,10.85,0.087,1.009,0,-1.5,-1.47,3.68,-1.00
837,2026-07-26T15:19:32.640,35.7517102,-82.8697622,2408.7,10.73,0.075,1.028,0,-1.2,-0.98,3.39,-1.48
838,2026-07-26T15:19:32.680,35.7517117,-82.8697634,2408.7,10.79,0.070,1.024,0,-0.8,-0.27,2.67,-2.06
839,2026-07-26T15:19:32.720,35.7517131,-82.8697646,2408.6,10.71,0.071,1.012,0,-0.7,0.65,1.97,-2.69
840,2026-07-26T15:19:32.760,35.7517146,-82.8697659,2408.6,11.01,0.071,1.017,0,-1.0,1.59,1.56,-3.24
841,2026-07-26T15:19:32.800,35.7517160,-82.8697670,2408.6,10.82,0.070,1.031,0,-1.1,2.46,1.03,-3.70
842,2026-07-26T15:19:32.840,35.7517173,-82.8697682,2408.6,10.79,0.085,1.020,0,-2.1,3.35,0.49,-4.01
843,2026-07-26T15:19:32.880,35.7517187,-82.8697694,2408.6,10.74,0.098,1.013,0,-2.5,4.19,0.45,-4.19
844,2026-07-26T15:19:32.920,35.7517201,-82.8697705,2408.6,10.49,0.102,1.003,0,-2.1,4.92,0.49,-4.31
845,2026-07-26T15:19:32.960,35.7517214,-82.8697717,2408.6,10.43,0.103,0.979,0,-2.0,6.12,0.85,-4.37
846,2026-07-26T15:19:33.000,35.7517228,-82.8697729,2408.6,10.74,0.104,0.959,0,-1.4,7.19,1.24,-4.45
847,2026-07-26T15:19:33.040,35.7517241,-82.8697742,2408.6,10.86,0.105,0.972,0,-1.5,8.45,1.08,-4.44
848,2026-07-26T15:19:33.080,35.7517256,-82.8697754,2408.5,10.88,0.143,0.954,0,-1.2,9.92,0.30,-4.24
849,2026-07-26T15:19:33.120,35.7517270,-82.8697766,2408.5,10.57,0.181,0.952,0,-1.8,11.02,-0.18,-3.90
850,2026-07-26T15:19:33.160,35.7517282,-82.8697778,2408.5,9.98,0.215,0.964,0,-2.1,11.87,-0.91,-3.36
851,2026-07-26T15:19:33.200,35.7517294,-82.8697788,2408.5,9.63,0.228,0.961,0,-2.1,12.90,-1.14,-2.62
852,2026-07-26T15:19:33.240,35.7517307,-82.8697799,2408.5,9.92,0.215,0.976,0,-2.2,14.05,-0.61,-1.64
853,2026-07-26T15:19:33.280,35.7517319,-82.8697811,2408.5,10.47,0.197,0.997,0,-2.7,14.80,-0.02,-0.56
854,2026-07-26T15:19:33.320,35.7517332,-82.8697824,2408.5,10.50,0.196,0.979,0,-2.9,15.66,0.74,0.74
855,2026-07-26T15:19:33.360,35.7517344,-82.8697835,2408.5,9.71,0.193,0.968,0,-2.5,16.02,1.74,2.26
856,2026-07-26T15:19:33.400,35.7517357,-82.8697847,2408.4,9.35,0.197,0.961,0,-2.9,16.14,2.37,4.13
857,2026-07-26T15:19:33.440,35.7517368,-82.8697857,2408.5,9.23,0.200,0.945,0,-3.5,15.50,2.93,6.14
858,2026-07-26T15:19:33.480,35.7517380,-82.8697868,2408.4,9.61,0.198,0.936,0,-4.3,14.79,3.48,8.35
859,2026-07-26T15:19:33.520,35.7517392,-82.8697880,2408.4,9.83,0.193,0.943,0,-4.8,13.93,3.93,10.69
860,2026-07-26T15:19:33.560,35.7517403,-82.8697892,2408.4,9.28,0.186,0.960,0,-4.3,12.78,4.37,13.04
861,2026-07-26T15:19:33.600,35.7517415,-82.8697903,2408.3,9.25,0.194,0.977,0,-4.5,11.33,4.73,15.46
862,2026-07-26T15:19:33.640,35.7517426,-82.8697914,2408.3,9.44,0.198,0.996,0,-5.3,9.84,4.97,17.80
863,2026-07-26T15:19:33.680,35.7517438,-82.8697926,2408.3,9.38,0.200,1.009,0,-5.5,8.48,5.09,20.08
864,2026-07-26T15:19:33.720,35.7517450,-82.8697937,2408.3,9.16,0.210,1.003,0,-6.4,6.90,5.32,22.14
865,2026-07-26T15:19:33.760,35.7517460,-82.8697947,2408.3,8.69,0.206,1.003,0,-6.9,5.57,5.62,24.04
866,2026-07-26T15:19:33.800,35.7517470,-82.8697958,2408.3,8.74,0.201,0.994,0,-6.5,3.95,5.89,25.52
867,2026-07-26T15:19:33.840,35.7517480,-82.8697970,2408.3,9.04,0.194,0.997,0,-6.4,2.48,5.93,26.72
868,2026-07-26T15:19:33.880,35.7517489,-82.8697982,2408.3,8.92,0.186,0.992,0,-6.9,0.93,5.77,27.59
869,2026-07-26T15:19:33.920,35.7517499,-82.8697994,2408.3,8.75,0.168,1.002,0,-6.9,-0.32,5.56,28.29
870,2026-07-26T15:19:33.960,35.7517509,-82.8698007,2408.3,8.67,0.172,0.987,0,-7.2,-1.76,5.34,28.78
871,2026-07-26T15:19:34.000,35.7517519,-82.8698019,2408.3,8.59,0.172,0.991,0,-7.7,-2.89,5.32,29.11
872,2026-07-26T15:19:34.040,35.7517528,-82.8698030,2408.2,8.31,0.176,0.998,0,-7.8,-4.14,5.03,29.28
873,2026-07-26T15:19:34.080,35.7517536,-82.8698042,2408.2,8.10,0.181,1.011,0,-7.8,-5.21,4.54,29.30
874,2026-07-26T15:19:34.120,35.7517544,-82.8698053,2408.3,8.27,0.181,1.017,0,-7.9,-6.55,3.86,29.14
875,2026-07-26T15:19:34.160,35.7517551,-82.8698065,2408.3,8.21,0.178,1.004,0,-7.7,-7.61,3.03,28.85
876,2026-07-26T15:19:34.200,35.7517561,-82.8698078,2408.3,8.38,0.168,0.982,0,-7.7,-8.68,2.57,28.38
877,2026-07-26T15:19:34.240,35.7517568,-82.8698090,2408.3,8.23,0.144,0.970,0,-7.6,-9.51,2.65,27.67
878,2026-07-26T15:19:34.280,35.7517576,-82.8698104,2408.2,8.25,0.120,0.968,0,-7.6,-10.19,2.83,26.67
879,2026-07-26T15:19:34.320,35.7517583,-82.8698116,2408.2,8.31,0.102,0.960,0,-7.4,-10.52,3.05,25.41
880,2026-07-26T15:19:34.360,35.7517591,-82.8698129,2408.2,8.11,0.070,0.977,0,-7.2,-10.88,3.50,23.96
881,2026-07-26T15:19:34.400,35.7517598,-82.8698143,2408.2,8.09,0.044,0.999,0,-6.5,-11.16,3.69,22.48
882,2026-07-26T15:19:34.440,35.7517605,-82.8698155,2408.2,8.31,0.033,1.004,0,-6.4,-11.40,3.77,20.94
883,2026-07-26T15:19:34.480,35.7517612,-82.8698169,2408.2,8.59,0.037,0.997,0,-6.7,-11.88,3.93,19.41
884,2026-07-26T15:19:34.520,35.7517619,-82.8698183,2408.2,8.40,0.052,0.999,0,-6.9,-12.19,3.88,17.92
885,2026-07-26T15:19:34.560,35.7517626,-82.8698198,2408.2,8.51,0.078,0.987,0,-6.4,-12.36,3.71,16.33
886,2026-07-26T15:19:34.600,35.7517633,-82.8698212,2408.1,8.37,0.096,0.978,0,-5.8,-12.23,3.62,14.70
887,2026-07-26T15:19:34.640,35.7517640,-82.8698225,2408.1,8.04,0.103,0.975,0,-5.4,-11.71,3.49,12.87
888,2026-07-26T15:19:34.680,35.7517646,-82.8698239,2408.1,7.98,0.103,0.969,0,-4.9,-10.67,3.25,10.94
889,2026-07-26T15:19:34.720,35.7517651,-82.8698253,2408.0,8.12,0.086,0.965,0,-3.9,-9.66,3.38,8.95
890,2026-07-26T15:19:34.760,35.7517657,-82.8698267,2408.0,8.30,0.056,0.980,0,-3.3,-8.46,3.38,7.05
891,2026-07-26T15:19:34.800,35.7517663,-82.8698282,2408.0,8.82,0.034,0.989,0,-3.2,-7.38,3.10,5.27
892,2026-07-26T15:19:34.840,35.7517669,-82.8698298,2408.1,9.26,0.004,1.038,0,-3.2,-6.43,2.58,3.80
893,2026-07-26T15:19:34.880,35.7517675,-82.8698313,2408.1,8.80,-0.003,1.055,0,-2.6,-5.63,0.70,2.54
894,2026-07-26T15:19:34.920,35.7517681,-82.8698329,2408.1,8.68,0.034,1.026,0,-2.6,-5.02,-1.35,1.58
895,2026-07-26T15:19:34.960,35.7517687,-82.8698344,2408.1,8.71,0.064,1.021,0,-2.5,-4.57,-2.96,0.88
896,2026-07-26T15:19:35.000,35.7517693,-82.8698358,2408.1,8.35,0.100,0.995,0,-1.7,-4.09,-4.19,0.40
897,2026-07-26T15:19:35.040,35.7517699,-82.8698373,2408.1,8.24,0.124,0.987,0,-1.5,-3.83,-4.00,0.04
898,2026-07-26T15:19:35.080,35.7517704,-82.8698387,2408.0,8.38,0.122,0.997,0,-1.2,-3.40,-3.11,-0.28
899,2026-07-26T15:19:35.120,35.7517710,-82.8698401,2408.1,8.65,0.108,1.009,0,-0.7,-2.77,-2.29,-0.53
900,2026-07-26T15:19:35.160,35.7517716,-82.8698416,2408.1,8.49,0.101,1.002,0,-1.0,-2.40,-1.49,-0.82
901,2026-07-26T15:19:35.200,35.7517722,-82.8698432,2408.0,8.48,0.094,0.996,0,-1.0,-2.15,-0.94,-0.97
902,2026-07-26T15:19:35.240,35.7517729,-82.8698447,2408.0,8.69,0.107,0.912,0,-0.9,-1.86,-0.61,-0.91
903,2026-07-26T15:19:35.280,35.7517735,-82.8698461,2408.0,8.42,0.094,0.902,0,-0.6,-1.84,-0.04,-0.77
904,2026-07-26T15:19:35.320,35.7517740,-82.8698475,2407.9,8.08,0.084,0.907,0,-0.2,-2.05,0.21,-0.65
905,2026-07-26T15:19:35.360,35.7517746,-82.8698490,2407.9,8.22,0.079,0.919,0,-0.3,-2.21,0.28,-0.46
906,2026-07-26T15:19:35.400,35.7517752,-82.8698506,2407.9,8.74,0.061,0.991,0,0.1,-2.54,0.02,-0.37
907,2026-07-26T15:19:35.440,35.7517758,-82.8698521,2407.9,9.18,0.067,1.042,0,-0.3,-2.87,-1.01,-0.29
908,2026-07-26T15:19:35.480,35.7517764,-82.8698536,2408.0,8.68,0.102,1.029,0,0.3,-3.19,-1.57,-0.06
909,2026-07-26T15:19:35.520,35.7517770,-82.8698550,2408.0,8.48,0.116,1.049,0,0.4,-3.90,-1.37,0.30
910,2026-07-26T15:19:35.560,35.7517776,-82.8698564,2408.0,8.50,0.129,1.036,0,-0.2,-4.47,-1.04,0.69
911,2026-07-26T15:19:35.600,35.7517782,-82.8698579,2408.0,8.42,0.148,0.982,0,-0.1,-5.41,0.30,1.07
912,2026-07-26T15:19:35.640,35.7517788,-82.8698593,2407.9,8.24,0.145,0.941,0,0.2,-6.18,2.05,1.31
913,2026-07-26T15:19:35.680,35.7517793,-82.8698607,2407.9,8.16,0.133,0.939,0,1.3,-6.98,4.10,1.17
914,2026-07-26T15:19:35.720,35.7517799,-82.8698622,2407.8,8.18,0.128,0.923,0,2.0,-7.42,6.27,0.67
915,2026-07-26T15:19:35.760,35.7517805,-82.8698636,2407.8,8.20,0.117,0.951,0,1.6,-7.70,8.27,-0.22
916,2026-07-26T15:19:35.800,35.7517812,-82.8698650,2407.8,8.21,0.108,0.967,0,1.1,-7.54,9.52,-1.57
917,2026-07-26T15:19:35.840,35.7517818,-82.8698665,2407.8,8.45,0.096,1.007,0,0.7,-7.34,10.70,-3.19
918,2026-07-26T15:19:35.880,35.7517824,-82.8698679,2407.8,8.14,0.089,1.030,0,1.4,-6.73,10.73,-4.86
919,2026-07-26T15:19:35.920,35.7517829,-82.8698693,2407.8,8.31,0.071,1.042,0,2.7,-6.23,10.72,-6.45
920,2026-07-26T15:19:35.960,35.7517836,-82.8698710,2407.8,8.70,0.051,1.057,0,3.6,-5.48,9.97,-7.85
921,2026-07-26T15:19:36.000,35.7517842,-82.8698724,2407.8,8.43,0.038,1.058,0,3.3,-5.00,9.31,-8.79
922,2026-07-26T15:19:36.040,35.7517848,-82.8698739,2407.7,8.67,0.027,1.082,0,2.7,-4.70,8.28,-9.28
923,2026-07-26T15:19:36.080,35.7517854,-82.8698753,2407.7,8.56,0.043,1.090,0,3.0,-4.47,6.71,-9.32
924,2026-07-26T15:19:36.120,35.7517861,-82.8698767,2407.8,8.65,0.056,1.097,0,2.7,-4.82,5.29,-9.08
925,2026-07-26T15:19:36.160,35.7517868,-82.8698780,2407.8,8.59,0.070,1.055,0,2.5,-4.90,4.47,-8.86
926,2026-07-26T15:19:36.200,35.7517874,-82.8698794,2407.9,8.50,0.053,1.057,0,2.3,-5.02,4.13,-9.03
927,2026-07-26T15:19:36.240,35.7517881,-82.8698810,2407.8,8.36,0.044,0.989,0,3.0,-4.38,4.18,-9.72
928,2026-07-26T15:19:36.280,35.7517887,-82.8698823,2407.8,8.46,0.004,0.974,0,3.7,-3.75,5.09,-10.96
929,2026-07-26T15:19:36.320,35.7517894,-82.8698839,2407.8,8.69,-0.023,0.960,0,4.1,-2.45,5.53,-12.58
930,2026-07-26T15:19:36.360,35.7517902,-82.8698854,2407.9,9.10,-0.059,0.975,0,4.9,-1.34,5.16,-14.19
931,2026-07-26T15:19:36.400,35.7517909,-82.8698868,2407.9,9.23,-0.061,0.964,0,5.3,-0.07,4.38,-15.36
932,2026-07-26T15:19:36.440,35.7517917,-82.8698885,2407.9,9.46,-0.066,1.003,0,4.3,0.80,3.44,-16.04
933,2026-07-26T15:19:36.480,35.7517926,-82.8698899,2407.9,9.03,-0.047,1.001,0,4.0,2.05,2.36,-16.21
934,2026-07-26T15:19:36.520,35.7517933,-82.8698911,2407.8,8.54,-0.050,1.036,0,4.1,2.44,1.89,-16.14
935,2026-07-26T15:19:36.560,35.7517940,-82.8698926,2407.8,8.92,-0.046,1.027,0,4.6,3.44,1.16,-15.84
936,2026-07-26T15:19:36.600,35.7517948,-82.8698942,2407.9,9.73,-0.051,1.039,0,5.0,3.99,0.75,-15.42
937,2026-07-26T15:19:36.640,35.7517957,-82.8698959,2408.0,9.98,-0.046,1.016,0,4.5,3.67,-0.36,-14.99
938,2026-07-26T15:19:36.680,35.7517966,-82.8698973,2408.0,9.70,-0.021,0.947,0,4.3,3.85,0.02,-14.53
939,2026-07-26T15:19:36.720,35.7517975,-82.8698988,2408.0,9.19,-0.022,0.958,0,4.1,3.64,0.80,-14.15
940,2026-07-26T15:19:36.760,35.7517983,-82.8699002,2408.0,8.66,-0.024,0.944,0,4.6,4.30,1.08,-13.99
941,2026-07-26T15:19:36.800,35.7517992,-82.8699017,2408.0,9.38,-0.045,0.980,0,6.0,3.78,1.44,-14.11
942,2026-07-26T15:19:36.840,35.7518000,-82.8699033,2408.0,10.11,-0.040,0.994,0,5.7,4.31,1.15,-13.99
943,2026-07-26T15:19:36.880,35.7518011,-82.8699048,2408.1,10.28,-0.042,0.993,0,5.1,3.77,0.86,-13.82
944,2026-07-26T15:19:36.920,35.7518020,-82.8699062,2408.0,9.38,-0.027,0.949,0,4.0,3.66,0.72,-13.42
945,2026-07-26T15:19:36.960,35.7518028,-82.8699076,2408.0,8.99,-0.021,0.943,0,4.7,3.35,2.07,-12.62
946,2026-07-26T15:19:37.000,35.7518038,-82.8699091,2408.0,9.48,-0.043,0.972,0,4.6,4.08,2.77,-11.47
947,2026-07-26T15:19:37.040,35.7518048,-82.8699107,2408.0,10.22,-0.058,0.981,0,4.8,5.13,3.02,-10.32
948,2026-07-26T15:19:37.080,35.7518059,-82.8699124,2408.0,10.74,-0.070,1.026,0,4.4,5.48,2.83,-9.22
949,2026-07-26T15:19:37.120,35.7518067,-82.8699138,2408.1,10.12,-0.068,1.029,0,3.9,6.05,1.98,-7.93
950,2026-07-26T15:19:37.160,35.7518078,-82.8699151,2408.1,9.74,-0.054,1.006,0,3.5,5.75,1.09,-6.97
951,2026-07-26T15:19:37.200,35.7518088,-82.8699167,2408.1,9.73,-0.034,0.970,0,2.9,5.23,0.62,-5.73
952,2026-07-26T15:19:37.240,35.7518099,-82.8699181,2408.1,10.29,-0.032,0.960,0,3.0,3.92,0.75,-4.57
953,2026-07-26T15:19:37.280,35.7518109,-82.8699196,2408.1,10.48,-0.024,0.966,0,2.6,2.88,0.72,-3.33
954,2026-07-26T15:19:37.320,35.7518121,-82.8699211,2408.2,10.47,-0.017,0.958,0,1.9,1.25,0.81,-2.36
955,2026-07-26T15:19:37.360,35.7518133,-82.8699227,2408.2,10.45,-0.027,0.998,0,1.4,0.23,0.90,-1.49
956,2026-07-26T15:19:37.400,35.7518144,-82.8699243,2408.1,10.80,-0.025,1.006,0,1.4,-0.64,0.57,-1.09
957,2026-07-26T15:19:37.440,35.7518155,-82.8699260,2408.2,10.93,-0.015,0.997,0,2.4,-1.17,0.62,-0.92
958,2026-07-26T15:19:37.480,35.7518164,-82.8699274,2408.3,10.43,-0.007,0.972,0,3.2,-1.62,0.89,-1.05
959,2026-07-26T15:19:37.520,35.7518176,-82.8699289,2408.3,10.28,0.001,0.958,0,2.7,-2.02,1.95,-1.32
960,2026-07-26T15:19:37.560,35.7518187,-82.8699303,2408.3,10.27,-0.010,0.984,0,2.0,-2.48,2.96,-1.66
961,2026-07-26T15:19:37.600,35.7518198,-82.8699320,2408.3,10.57,-0.020,0.998,0,2.1,-2.80,3.26,-2.22
962,2026-07-26T15:19:37.640,35.7518210,-82.8699335,2408.3,11.16,-0.040,1.034,0,2.2,-3.08,3.09,-2.71
963,2026-07-26T15:19:37.680,35.7518222,-82.8699352,2408.4,11.33,-0.049,1.029,0,2.1,-3.26,2.12,-3.16
964,2026-07-26T15:19:37.720,35.7518233,-82.8699368,2408.4,10.97,-0.055,1.024,0,2.9,-3.08,0.96,-3.51
965,2026-07-26T15:19:37.760,35.7518245,-82.8699383,2408.4,10.77,-0.059,1.016,0,2.8,-3.51,-0.16,-3.79
966,2026-07-26T15:19:37.800,35.7518257,-82.8699399,2408.4,11.24,-0.057,1.025,0,2.8,-3.89,-1.11,-3.89
967,2026-07-26T15:19:37.840,35.7518270,-82.8699416,2408.4,11.58,-0.047,1.023,0,2.5,-4.34,-2.53,-3.97
968,2026-07-26T15:19:37.880,35.7518283,-82.8699433,2408.5,11.87,-0.030,1.015,0,2.6,-4.96,-3.64,-3.96
969,2026-07-26T15:19:37.920,35.7518295,-82.8699449,2408.5,11.66,-0.008,0.994,0,2.6,-5.61,-4.44,-3.99
970,2026-07-26T15:19:37.960,35.7518307,-82.8699466,2408.6,11.31,0.014,0.951,0,2.8,-6.11,-4.22,-4.10
971,2026-07-26T15:19:38.000,35.7518318,-82.8699480,2408.6,10.73,0.031,0.919,0,3.0,-6.49,-3.47,-4.25
972,2026-07-26T15:19:38.040,35.7518331,-82.8699497,2408.5,10.87,0.048,0.868,0,3.3,-6.54,-2.08,-4.61
973,2026-07-26T15:19:38.080,35.7518343,-82.8699511,2408.5,11.20,0.016,0.919,0,3.9,-6.50,-0.90,-5.13
974,2026-07-26T15:19:38.120,35.7518357,-82.8699527,2408.5,11.52,-0.008,0.935,0,3.5,-6.27,-0.68,-5.72
975,2026-07-26T15:19:38.160,35.7518370,-82.8699545,2408.6,11.83,-0.008,0.926,0,3.0,-6.30,-1.43,-6.29
976,2026-07-26T15:19:38.200,35.7518383,-82.8699560,2408.6,11.84,0.007,0.922,0,2.7,-6.31,-1.52,-6.80
977,2026-07-26T15:19:38.240,35.7518395,-82.8699576,2408.6,11.37,0.015,0.958,0,3.4,-7.18,-0.73,-7.15
978,2026-07-26T15:19:38.280,35.7518407,-82.8699591,2408.5,10.78,0.047,0.942,0,5.1,-7.51,0.26,-7.40
979,2026-07-26T15:19:38.320,35.7518421,-82.8699607,2408.5,11.21,0.039,1.012,0,5.4,-7.76,1.67,-7.66
980,2026-07-26T15:19:38.360,35.7518435,-82.8699624,2408.6,12.07,0.024,1.040,0,5.2,-7.87,2.20,-8.02
981,2026-07-26T15:19:38.400,35.7518449,-82.8699641,2408.6,12.43,0.010,1.033,0,4.7,-7.49,2.21,-8.55
982,2026-07-26T15:19:38.440,35.7518462,-82.8699656,2408.6,11.89,0.014,0.989,0,5.1,-7.30,1.99,-9.33
983,2026-07-26T15:19:38.480,35.7518476,-82.8699672,2408.6,11.36,0.007,0.982,0,5.7,-7.29,2.25,-10.25
984,2026-07-26T15:19:38.520,35.7518489,-82.8699686,2408.6,11.20,0.011,0.966,0,6.6,-7.40,1.94,-11.15
985,2026-07-26T15:19:38.560,35.7518503,-82.8699703,2408.6,11.98,0.009,0.993,0,7.0,-6.99,1.63,-11.88
986,2026-07-26T15:19:38.600,35.7518519,-82.8699718,2408.6,12.71,0.005,1.048,0,6.1,-7.04,0.87,-12.54
987,2026-07-26T15:19:38.640,35.7518534,-82.8699734,2408.7,12.41,0.027,1.038,0,5.3,-6.35,-0.32,-12.95
988,2026-07-26T15:19:38.680,35.7518547,-82.8699749,2408.7,11.81,0.032,1.035,0,5.7,-5.94,-0.97,-13.27
989,2026-07-26T15:19:38.720,35.7518561,-82.8699763,2408.7,11.41,0.040,1.000,0,7.1,-5.57,-1.12,-13.47
990,2026-07-26T15:19:38.760,35.7518576,-82.8699775,2408.7,11.25,0.038,0.979,0,6.8,-5.75,-0.60,-13.63
991,2026-07-26T15:19:38.800,35.7518591,-82.8699792,2408.7,11.88,0.024,0.959,0,6.1,-5.99,-0.15,-13.71
992,2026-07-26T15:19:38.840,35.7518607,-82.8699807,2408.7,12.87,0.013,0.969,0,6.3,-6.11,0.18,-13.79
993,2026-07-26T15:19:38.880,35.7518623,-82.8699823,2408.7,12.64,0.016,0.963,0,6.5,-5.98,0.15,-13.85
994,2026-07-26T15:19:38.920,35.7518638,-82.8699837,2408.7,12.40,0.012,0.978,0,7.6,-5.74,0.49,-13.95
995,2026-07-26T15:19:38.960,35.7518655,-82.8699851,2408.6,12.24,0.014,0.981,0,7.8,-5.52,0.83,-14.15
996,2026-07-26T15:19:39.000,35.7518671,-82.8699866,2408.6,12.25,0.022,0.976,0,8.1,-5.26,1.48,-14.32
997,2026-07-26T15:19:39.040,35.7518687,-82.8699880,2408.6,12.40,0.013,0.999,0,7.5,-5.18,2.10,-14.56
998,2026-07-26T15:19:39.080,35.7518705,-82.8699895,2408.5,12.65,0.024,0.980,0,7.6,-5.46,2.55,-14.86
999,2026-07-26T15:19:39.120,35.7518721,-82.8699909,2408.5,12.62,0.027,0.980,0,8.0,-5.53,2.96,-15.21
1000,2026-07-26T15:19:39.160,35.7518737,-82.8699923,2408.5,12.29,0.037,0.971,0,8.7,-5.54,3.30,-15.54
1001,2026-07-26T15:19:39.200,35.7518754,-82.8699935,2408.4,12.29,0.035,0.982,0,8.8,-5.34,3.69,-15.90
1002,2026-07-26T15:19:39.240,35.7518771,-82.8699949,2408.4,12.69,0.029,0.991,0,8.7,-5.07,3.92,-16.19
1003,2026-07-26T15:19:39.280,35.7518789,-82.8699962,2408.4,13.09,0.024,1.009,0,8.2,-4.60,4.02,-16.43
1004,2026-07-26T15:19:39.320,35.7518807,-82.8699977,2408.3,13.23,0.022,1.014,0,8.3,-4.45,3.94,-16.68
1005,2026-07-26T15:19:39.360,35.7518826,-82.8699990,2408.3,13.23,0.024,1.011,0,9.5,-3.88,3.58,-16.81
1006,2026-07-26T15:19:39.400,35.7518843,-82.8700002,2408.3,12.90,0.032,1.003,0,9.1,-3.65,3.25,-16.96
1007,2026-07-26T15:19:39.440,35.7518861,-82.8700014,2408.4,12.94,0.037,0.999,0,8.8,-3.72,3.15,-17.16
1008,2026-07-26T15:19:39.480,35.7518879,-82.8700026,2408.4,13.03,0.039,0.996,0,8.1,-3.82,3.02,-17.33
1009,2026-07-26T15:19:39.520,35.7518898,-82.8700038,2408.3,13.01,0.053,0.989,0,8.2,-3.62,2.97,-17.42
1010,2026-07-26T15:19:39.560,35.7518917,-82.8700050,2408.3,13.33,0.053,0.991,0,8.2,-3.81,3.17,-17.60
1011,2026-07-26T15:19:39.600,35.7518936,-82.8700062,2408.2,13.22,0.052,0.982,0,8.8,-3.79,3.25,-17.75
1012,2026-07-26T15:19:39.640,35.7518956,-82.8700074,2408.2,13.29,0.052,0.977,0,8.8,-3.51,3.45,-17.88
1013,2026-07-26T15:19:39.680,35.7518975,-82.8700084,2408.2,13.21,0.040,0.993,0,9.1,-2.79,3.50,-17.96
1014,2026-07-26T15:19:39.720,35.7518994,-82.8700096,2408.1,13.36,0.036,0.992,0,8.5,-1.98,3.59,-18.02
1015,2026-07-26T15:19:39.760,35.7519014,-82.8700107,2408.1,13.48,0.039,0.996,0,8.9,-1.51,3.78,-18.15
1016,2026-07-26T15:19:39.800,35.7519034,-82.8700118,2408.1,13.34,0.041,0.992,0,9.0,-0.89,3.89,-18.21
1017,2026-07-26T15:19:39.840,35.7519052,-82.8700127,2408.1,13.40,0.040,0.990,0,8.8,-0.20,4.01,-18.20
1018,2026-07-26T15:19:39.880,35.7519073,-82.8700136,2408.1,13.46,0.040,0.999,0,8.6,0.41,4.07,-18.15
1019,2026-07-26T15:19:39.920,35.7519093,-82.8700148,2408.1,13.67,0.043,1.002,0,8.1,1.12,4.04,-18.10
1020,2026-07-26T15:19:39.960,35.7519114,-82.8700158,2408.0,13.65,0.047,1.004,0,8.8,2.16,3.76,-17.92
1021,2026-07-26T15:19:40.000,35.7519135,-82.8700167,2408.0,13.93,0.055,1.000,0,9.1,2.72,3.46,-17.86
1022,2026-07-26T15:19:40.040,35.7519155,-82.8700177,2407.9,13.95,0.060,0.992,0,8.7,3.09,2.96,-17.79
1023,2026-07-26T15:19:40.080,35.7519177,-82.8700185,2407.9,13.72,0.061,0.982,0,7.8,3.25,2.61,-17.65
1024,2026-07-26T15:19:40.120,35.7519198,-82.8700194,2407.9,13.81,0.053,0.988,0,8.1,3.22,2.39,-17.41
1025,2026-07-26T15:19:40.160,35.7519219,-82.8700203,2407.8,13.93,0.047,0.996,0,8.2,3.11,2.20,-17.03
1026,2026-07-26T15:19:40.200,35.7519240,-82.8700211,2407.8,13.82,0.042,1.004,0,7.5,2.88,2.17,-16.48
1027,2026-07-26T15:19:40.240,35.7519262,-82.8700220,2407.8,13.96,0.050,0.994,0,7.8,2.68,2.19,-15.91
1028,2026-07-26T15:19:40.280,35.7519283,-82.8700227,2407.8,13.98,0.067,0.981,0,8.1,2.55,2.33,-15.38
1029,2026-07-26T15:19:40.320,35.7519305,-82.8700234,2407.8,14.13,0.080,0.968,0,8.0,2.39,2.32,-15.04
1030,2026-07-26T15:19:40.360,35.7519326,-82.8700242,2407.8,14.06,0.088,0.970,0,7.4,2.30,2.38,-14.89
1031,2026-07-26T15:19:40.400,35.7519348,-82.8700247,2407.8,14.00,0.095,0.968,0,6.2,2.79,2.25,-14.86
1032,2026-07-26T15:19:40.440,35.7519370,-82.8700254,2407.7,14.11,0.099,0.958,0,6.4,3.55,2.08,-14.94
1033,2026-07-26T15:19:40.480,35.7519392,-82.8700263,2407.6,13.91,0.101,0.965,0,6.6,4.42,2.16,-15.15
1034,2026-07-26T15:19:40.520,35.7519414,-82.8700270,2407.5,14.12,0.101,0.973,0,6.9,5.55,2.42,-15.27
1035,2026-07-26T15:19:40.560,35.7519435,-82.8700277,2407.5,14.23,0.103,0.965,0,7.3,6.88,2.59,-15.26
1036,2026-07-26T15:19:40.600,35.7519458,-82.8700283,2407.5,14.21,0.110,0.966,0,7.7,7.83,3.19,-15.06
1037,2026-07-26T15:19:40.640,35.7519480,-82.8700288,2407.5,13.96,0.103,0.996,0,7.3,8.54,4.00,-14.54
1038,2026-07-26T15:19:40.680,35.7519502,-82.8700294,2407.5,13.84,0.110,0.997,0,6.4,9.03,4.53,-13.72
1039,2026-07-26T15:19:40.720,35.7519524,-82.8700299,2407.4,13.84,0.118,1.000,0,5.6,8.91,5.16,-12.70
1040,2026-07-26T15:19:40.760,35.7519546,-82.8700304,2407.4,14.01,0.118,1.017,0,5.2,8.86,5.39,-11.50
1041,2026-07-26T15:19:40.800,35.7519569,-82.8700309,2407.3,14.16,0.118,1.035,0,5.2,8.55,5.08,-10.18
1042,2026-07-26T15:19:40.840,35.7519591,-82.8700316,2407.3,14.10,0.123,1.050,0,4.5,8.13,4.32,-8.95
1043,2026-07-26T15:19:40.880,35.7519611,-82.8700321,2407.3,13.91,0.130,1.044,0,5.4,7.34,3.24,-7.75
1044,2026-07-26T15:19:40.920,35.7519634,-82.8700324,2407.4,13.79,0.132,1.050,0,5.6,6.87,2.00,-6.54
1045,2026-07-26T15:19:40.960,35.7519655,-82.8700328,2407.3,13.96,0.134,1.032,0,4.2,5.82,1.12,-5.41
1046,2026-07-26T15:19:41.000,35.7519678,-82.8700333,2407.3,13.93,0.123,1.019,0,3.1,4.71,0.63,-4.53
1047,2026-07-26T15:19:41.040,35.7519699,-82.8700336,2407.3,13.76,0.120,1.000,0,3.7,3.63,0.26,-3.73
1048,2026-07-26T15:19:41.080,35.7519721,-82.8700340,2407.3,13.86,0.117,0.981,0,4.0,2.91,0.16,-3.06
1049,2026-07-26T15:19:41.120,35.7519742,-82.8700344,2407.3,13.70,0.115,0.954,0,3.7,1.89,0.55,-2.60
1050,2026-07-26T15:19:41.160,35.7519763,-82.8700348,2407.3,13.67,0.105,0.960,0,3.0,0.96,1.12,-2.37
1051,2026-07-26T15:19:41.200,35.7519785,-82.8700352,2407.2,13.88,0.103,0.963,0,3.0,0.37,1.47,-2.14
1052,2026-07-26T15:19:41.240,35.7519808,-82.8700355,2407.2,14.07,0.105,0.960,0,3.0,-0.39,2.10,-2.04
1053,2026-07-26T15:19:41.280,35.7519830,-82.8700357,2407.3,14.14,0.095,0.983,0,2.2,-1.19,2.62,-2.04
1054,2026-07-26T15:19:41.320,35.7519851,-82.8700362,2407.3,13.72,0.087,1.004,0,2.3,-1.96,2.79,-2.19
1055,2026-07-26T15:19:41.360,35.7519873,-82.8700365,2407.3,13.38,0.087,1.016,0,2.8,-2.45,2.63,-2.34
1056,2026-07-26T15:19:41.400,35.7519895,-82.8700369,2407.2,13.84,0.094,1.019,0,1.9,-3.40,2.36,-2.68
1057,2026-07-26T15:19:41.440,35.7519918,-82.8700374,2407.1,14.15,0.090,1.029,0,2.4,-3.64,1.80,-3.00
1058,2026-07-26T15:19:41.480,35.7519940,-82.8700376,2407.1,13.88,0.095,1.028,0,2.6,-3.92,1.23,-3.44
1059,2026-07-26T15:19:41.520,35.7519962,-82.8700379,2407.1,13.80,0.102,1.020,0,2.5,-3.95,0.85,-3.87
1060,2026-07-26T15:19:41.560,35.7519984,-82.8700381,2407.1,13.78,0.110,1.003,0,2.4,-4.34,0.67,-4.43
1061,2026-07-26T15:19:41.600,35.7520005,-82.8700385,2407.1,13.67,0.112,0.992,0,1.5,-4.20,0.68,-4.96
1062,2026-07-26T15:19:41.640,35.7520027,-82.8700388,2407.0,13.79,0.114,0.983,0,1.9,-4.12,0.79,-5.52
1063,2026-07-26T15:19:41.680,35.7520049,-82.8700391,2407.0,13.67,0.115,0.979,0,2.2,-3.69,0.94,-6.01
1064,2026-07-26T15:19:41.720,35.7520071,-82.8700396,2407.0,13.78,0.116,0.979,0,2.5,-3.41,1.03,-6.47
1065,2026-07-26T15:19:41.760,35.7520094,-82.8700400,2406.8,13.87,0.113,0.982,0,3.7,-2.98,1.12,-6.85
1066,2026-07-26T15:19:41.800,35.7520116,-82.8700402,2406.9,13.84,0.106,0.996,0,4.1,-2.58,1.33,-7.15
1067,2026-07-26T15:19:41.840,35.7520137,-82.8700403,2406.9,13.72,0.108,0.997,0,3.0,-2.57,1.40,-7.49
1068,2026-07-26T15:19:41.880,35.7520159,-82.8700408,2406.9,13.42,0.113,0.984,0,2.9,-2.46,1.47,-7.77
1069,2026-07-26T15:19:41.920,35.7520181,-82.8700410,2406.8,13.71,0.102,0.998,0,4.2,-2.12,1.59,-8.03
1070,2026-07-26T15:19:41.960,35.7520203,-82.8700414,2406.7,13.82,0.101,0.995,0,4.2,-1.76,1.68,-8.28
1071,2026-07-26T15:19:42.000,35.7520225,-82.8700415,2406.8,13.83,0.105,0.987,0,4.6,-1.56,1.70,-8.51
1072,2026-07-26T15:19:42.040,35.7520247,-82.8700415,2406.8,13.87,0.106,0.983,0,3.1,-0.94,1.68,-8.65
1073,2026-07-26T15:19:42.080,35.7520269,-82.8700417,2406.8,13.67,0.100,0.996,0,2.9,-0.49,1.74,-8.77
1074,2026-07-26T15:19:42.120,35.7520291,-82.8700420,2406.7,13.56,0.107,0.987,0,3.2,0.20,1.68,-8.78
1075,2026-07-26T15:19:42.160,35.7520313,-82.8700422,2406.6,13.61,0.107,0.990,0,3.4,0.67,1.76,-8.75
1076,2026-07-26T15:19:42.200,35.7520334,-82.8700424,2406.6,13.49,0.100,1.000,0,4.2,1.09,1.84,-8.72
1077,2026-07-26T15:19:42.240,35.7520356,-82.8700424,2406.6,13.57,0.099,1.003,0,3.9,1.61,1.90,-8.59
1078,2026-07-26T15:19:42.280,35.7520378,-82.8700424,2406.7,13.90,0.100,0.998,0,3.3,2.14,1.94,-8.39
1079,2026-07-26T15:19:42.320,35.7520402,-82.8700427,2406.6,13.92,0.093,1.003,0,2.8,2.61,1.94,-8.13
1080,2026-07-26T15:19:42.360,35.7520422,-82.8700429,2406.5,13.58,0.086,1.014,0,2.8,2.94,1.85,-7.91
1081,2026-07-26T15:19:42.400,35.7520444,-82.8700429,2406.6,13.44,0.090,1.009,0,3.6,3.37,1.66,-7.61
1082,2026-07-26T15:19:42.440,35.7520466,-82.8700429,2406.5,13.82,0.093,1.005,0,2.7,3.25,1.64,-7.38
1083,2026-07-26T15:19:42.480,35.7520489,-82.8700432,2406.5,13.95,0.093,1.006,0,2.7,3.11,1.57,-7.19
1084,2026-07-26T15:19:42.520,35.7520510,-82.8700432,2406.5,13.64,0.097,1.001,0,3.1,3.03,1.48,-6.97
1085,2026-07-26T15:19:42.560,35.7520533,-82.8700434,2406.5,13.84,0.102,0.993,0,2.8,3.31,1.42,-6.61
1086,2026-07-26T15:19:42.600,35.7520555,-82.8700434,2406.4,13.77,0.097,0.995,0,3.6,3.53,1.37,-6.24
1087,2026-07-26T15:19:42.640,35.7520577,-82.8700434,2406.4,13.76,0.091,0.998,0,2.8,3.70,1.27,-5.88
1088,2026-07-26T15:19:42.680,35.7520599,-82.8700434,2406.4,13.66,0.089,0.999,0,1.7,3.92,1.18,-5.44
1089,2026-07-26T15:19:42.720,35.7520621,-82.8700434,2406.3,13.59,0.095,0.991,0,1.3,3.60,1.20,-5.10
1090,2026-07-26T15:19:42.760,35.7520642,-82.8700434,2406.4,13.58,0.092,0.995,0,1.4,3.66,1.23,-4.66
1091,2026-07-26T15:19:42.800,35.7520664,-82.8700434,2406.4,13.73,0.090,1.004,0,0.8,3.51,1.34,-4.31
1092,2026-07-26T15:19:42.840,35.7520688,-82.8700436,2406.4,14.06,0.089,1.012,0,2.0,3.57,1.46,-3.93
1093,2026-07-26T15:19:42.880,35.7520709,-82.8700434,2406.3,13.82,0.094,1.006,0,3.3,3.21,1.48,-3.69
1094,2026-07-26T15:19:42.920,35.7520730,-82.8700434,2406.3,13.55,0.099,0.992,0,1.7,3.25,1.52,-3.41
1095,2026-07-26T15:19:42.960,35.7520752,-82.8700434,2406.2,13.59,0.101,0.984,0,0.7,2.99,1.55,-3.18
1096,2026-07-26T15:19:43.000,35.7520774,-82.8700434,2406.2,13.41,0.105,0.973,0,0.5,3.00,1.53,-2.92
1097,2026-07-26T15:19:43.040,35.7520796,-82.8700434,2406.2,13.75,0.104,0.974,0,0.5,2.66,1.62,-2.70
1098,2026-07-26T15:19:43.080,35.7520819,-82.8700434,2406.2,14.16,0.102,0.978,0,1.4,2.65,1.64,-2.40
1099,2026-07-26T15:19:43.120,35.7520841,-82.8700436,2406.2,13.94,0.093,1.001,0,1.2,2.48,1.59,-2.04
1100,2026-07-26T15:19:43.160,35.7520863,-82.8700434,2406.2,13.55,0.093,1.009,0,1.5,2.49,1.35,-1.66
1101,2026-07-26T15:19:43.200,35.7520885,-82.8700434,2406.2,13.67,0.095,1.004,0,0.4,2.20,1.18,-1.28
1102,2026-07-26T15:19:43.240,35.7520907,-82.8700434,2406.1,13.87,0.089,1.005,0,-0.3,1.97,1.05,-0.95
1103,2026-07-26T15:19:43.280,35.7520929,-82.8700434,2406.1,13.69,0.082,1.006,0,0.3,1.78,1.00,-0.65
1104,2026-07-26T15:19:43.320,35.7520951,-82.8700434,2406.1,13.57,0.086,0.992,0,0.8,1.16,1.08,-0.56
1105,2026-07-26T15:19:43.360,35.7520973,-82.8700433,2406.1,13.74,0.081,0.995,0,0.3,0.98,1.25,-0.45
1106,2026-07-26T15:19:43.400,35.7520996,-82.8700434,2406.1,13.76,0.080,0.996,0,-0.6,0.82,1.36,-0.49
1107,2026-07-26T15:19:43.440,35.7521017,-82.8700434,2406.1,13.80,0.088,0.992,0,0.4,0.90,1.44,-0.56
1108,2026-07-26T15:19:43.480,35.7521040,-82.8700435,2406.0,13.64,0.092,0.992,0,1.1,0.76,1.54,-0.71
1109,2026-07-26T15:19:43.520,35.7521062,-82.8700435,2406.0,13.63,0.094,0.993,0,1.2,1.02,1.54,-0.80
1110,2026-07-26T15:19:43.560,35.7521083,-82.8700435,2406.0,13.83,0.097,0.993,0,0.5,0.99,1.58,-0.89
1111,2026-07-26T15:19:43.600,35.7521106,-82.8700434,2406.0,13.87,0.099,0.994,0,-0.5,1.24,1.61,-0.78
1112,2026-07-26T15:19:43.640,35.7521127,-82.8700434,2405.9,13.80,0.096,0.998,0,-0.7,1.26,1.62,-0.56
1113,2026-07-26T15:19:43.680,35.7521150,-82.8700434,2405.9,13.59,0.088,1.013,0,-0.8,1.30,1.59,-0.25
1114,2026-07-26T15:19:43.720,35.7521171,-82.8700434,2405.9,13.71,0.081,1.017,0,0.4,1.28,1.50,0.17
1115,2026-07-26T15:19:43.760,35.7521193,-82.8700436,2405.9,13.72,0.080,1.013,0,1.4,1.08,1.38,0.65
1116,2026-07-26T15:19:43.800,35.7521215,-82.8700434,2405.9,13.89,0.083,1.003,0,1.2,0.37,1.21,1.03
1117,2026-07-26T15:19:43.840,35.7521238,-82.8700432,2405.9,13.99,0.082,1.004,0,-0.4,-0.24,1.05,1.45
1118,2026-07-26T15:19:43.880,35.7521260,-82.8700434,2405.8,13.68,0.092,0.991,0,-1.1,-0.74,0.88,1.85
1119,2026-07-26T15:19:43.920,35.7521282,-82.8700433,2405.8,13.48,0.101,0.983,0,-1.5,-1.79,0.92,2.05
1120,2026-07-26T15:19:43.960,35.7521303,-82.8700433,2405.8,13.68,0.101,0.980,0,-0.8,-2.92,1.06,2.02
1121,2026-07-26T15:19:44.000,35.7521326,-82.8700433,2405.9,13.96,0.095,0.992,0,-0.2,-3.30,1.15,1.99
1122,2026-07-26T15:19:44.040,35.7521349,-82.8700433,2405.8,13.87,0.097,0.983,0,0.0,-3.58,1.32,1.79
1123,2026-07-26T15:19:44.080,35.7521370,-82.8700432,2405.9,13.88,0.093,0.988,0,0.5,-3.97,1.53,1.41
1124,2026-07-26T15:19:44.120,35.7521393,-82.8700432,2405.8,13.64,0.090,0.992,0,-0.2,-4.02,1.54,0.90
1125,2026-07-26T15:19:44.160,35.7521414,-82.8700433,2405.7,13.49,0.095,0.991,0,-0.9,-3.82,1.52,0.43
1126,2026-07-26T15:19:44.200,35.7521436,-82.8700433,2405.7,13.89,0.099,0.989,0,-0.5,-4.18,1.57,-0.16
1127,2026-07-26T15:19:44.240,35.7521460,-82.8700433,2405.7,14.16,0.099,0.995,0,0.8,-4.04,1.45,-0.68
1128,2026-07-26T15:19:44.280,35.7521481,-82.8700432,2405.8,14.01,0.100,0.998,0,0.3,-3.87,1.34,-1.18
1129,2026-07-26T15:19:44.320,35.7521503,-82.8700431,2405.8,13.67,0.098,1.004,0,-0.4,-3.48,1.31,-1.56
1130,2026-07-26T15:19:44.360,35.7521525,-82.8700432,2405.8,13.34,0.095,1.008,0,-0.5,-3.22,1.21,-1.92
1131,2026-07-26T15:19:44.400,35.7521546,-82.8700434,2405.6,13.45,0.095,1.007,0,0.9,-2.87,1.15,-2.25
1132,2026-07-26T15:19:44.440,35.7521569,-82.8700434,2405.6,13.72,0.096,1.004,0,1.5,-2.65,1.15,-2.59
1133,2026-07-26T15:19:44.480,35.7521590,-82.8700434,2405.6,13.84,0.101,0.988,0,1.6,-2.17,1.14,-2.89
1134,2026-07-26T15:19:44.520,35.7521613,-82.8700434,2405.7,14.06,0.099,0.988,0,1.3,-1.77,1.31,-3.19
1135,2026-07-26T15:19:44.560,35.7521636,-82.8700432,2405.7,13.77,0.090,0.996,0,0.9,-1.42,1.56,-3.56
1136,2026-07-26T15:19:44.600,35.7521656,-82.8700432,2405.7,13.79,0.092,0.989,0,0.3,-0.96,1.71,-3.89
1137,2026-07-26T15:19:44.640,35.7521679,-82.8700433,2405.7,13.52,0.087,0.992,0,0.5,-0.54,1.78,-4.20
1138,2026-07-26T15:19:44.680,35.7521700,-82.8700434,2405.6,13.43,0.082,0.997,0,1.4,0.10,1.67,-4.36
1139,2026-07-26T15:19:44.720,35.7521723,-82.8700433,2405.5,13.84,0.083,1.000,0,1.1,0.41,1.40,-4.56
1140,2026-07-26T15:19:44.760,35.7521745,-82.8700432,2405.6,13.72,0.091,0.996,0,1.0,0.95,1.02,-4.62
1141,2026-07-26T15:19:44.800,35.7521766,-82.8700432,2405.6,13.68,0.090,1.000,0,1.1,1.34,0.82,-4.64
1142,2026-07-26T15:19:44.840,35.7521788,-82.8700432,2405.7,13.68,0.089,0.998,0,1.4,1.86,0.66,-4.64
1143,2026-07-26T15:19:44.880,35.7521811,-82.8700432,2405.6,13.65,0.092,0.986,0,1.6,2.06,0.63,-4.70
1144,2026-07-26T15:19:44.920,35.7521832,-82.8700432,2405.6,13.75,0.093,0.976,0,0.5,2.62,0.76,-4.64
1145,2026-07-26T15:19:44.960,35.7521855,-82.8700430,2405.6,13.83,0.093,0.973,0,0.1,3.12,0.86,-4.48
1146,2026-07-26T15:19:45.000,35.7521876,-82.8700430,2405.6,13.66,0.096,0.969,0,0.3,3.50,0.94,-4.29
1147,2026-07-26T15:19:45.040,35.7521897,-82.8700430,2405.6,13.52,0.101,0.967,0,0.8,3.69,1.15,-3.98
1148,2026-07-26T15:19:45.080,35.7521919,-82.8700430,2405.5,13.54,0.103,0.970,0,0.5,3.69,1.34,-3.66
1149,2026-07-26T15:19:45.120,35.7521941,-82.8700430,2405.6,13.53,0.105,0.970,0,0.5,3.95,1.47,-3.25
1150,2026-07-26T15:19:45.160,35.7521964,-82.8700428,2405.6,13.67,0.106,0.965,0,1.0,4.01,1.71,-2.89
1151,2026-07-26T15:19:45.200,35.7521985,-82.8700428,2405.5,13.74,0.098,0.968,0,0.5,4.27,1.93,-2.51
1152,2026-07-26T15:19:45.240,35.7522007,-82.8700428,2405.4,13.68,0.090,0.979,0,0.5,4.60,2.02,-2.13
1153,2026-07-26T15:19:45.280,35.7522030,-82.8700428,2405.4,13.58,0.083,0.995,0,0.1,4.62,2.06,-1.80
1154,2026-07-26T15:19:45.320,35.7522050,-82.8700427,2405.5,13.60,0.085,1.000,0,0.2,4.32,1.87,-1.49
1155,2026-07-26T15:19:45.360,35.7522073,-82.8700425,2405.5,13.42,0.090,1.006,0,0.6,3.71,1.62,-1.23
1156,2026-07-26T15:19:45.400,35.7522093,-82.8700423,2405.5,13.55,0.098,0.999,0,-0.3,3.32,1.29,-0.87
1157,2026-07-26T15:19:45.440,35.7522116,-82.8700423,2405.5,13.72,0.108,0.980,0,-0.5,2.83,1.15,-0.53
1158,2026-07-26T15:19:45.480,35.7522137,-82.8700423,2405.4,13.58,0.106,0.972,0,0.1,2.58,1.19,-0.18
1159,2026-07-26T15:19:45.520,35.7522160,-82.8700423,2405.3,13.57,0.098,0.967,0,0.4,2.06,1.45,-0.04
1160,2026-07-26T15:19:45.560,35.7522183,-82.8700422,2405.4,13.78,0.087,0.969,0,-0.4,2.07,1.62,0.07
1161,2026-07-26T15:19:45.600,35.7522203,-82.8700422,2405.4,13.68,0.076,0.974,0,-0.8,1.94,1.84,0.06
1162,2026-07-26T15:19:45.640,35.7522226,-82.8700422,2405.4,13.58,0.063,0.980,0,0.0,1.87,2.02,0.04
1163,2026-07-26T15:19:45.680,35.7522247,-82.8700422,2405.4,13.56,0.054,0.980,0,0.4,1.60,2.29,0.19
1164,2026-07-26T15:19:45.720,35.7522269,-82.8700421,2405.4,13.64,0.041,0.976,0,0.2,1.60,2.48,0.59
1165,2026-07-26T15:19:45.760,35.7522292,-82.8700421,2405.3,13.82,0.022,0.983,0,-0.6,1.38,2.67,1.21
1166,2026-07-26T15:19:45.800,35.7522314,-82.8700418,2405.3,14.01,0.012,0.983,0,-0.5,0.71,2.65,1.95
1167,2026-07-26T15:19:45.840,35.7522336,-82.8700418,2405.3,13.94,0.007,0.980,0,-0.8,0.35,2.42,2.92
1168,2026-07-26T15:19:45.880,35.7522360,-82.8700418,2405.3,14.03,0.000,0.972,0,-0.9,-0.57,2.11,3.88
1169,2026-07-26T15:19:45.920,35.7522381,-82.8700416,2405.3,14.09,-0.004,0.971,0,-0.2,-1.50,1.78,4.80
1170,2026-07-26T15:19:45.960,35.7522404,-82.8700416,2405.3,14.04,0.000,0.966,0,-1.2,-2.88,1.37,5.52
1171,2026-07-26T15:19:46.000,35.7522427,-82.8700416,2405.3,14.31,-0.008,0.984,0,-1.4,-3.67,1.02,6.12
1172,2026-07-26T15:19:46.040,35.7522451,-82.8700415,2405.3,14.20,-0.022,1.015,0,-1.3,-5.10,0.72,6.35
1173,2026-07-26T15:19:46.080,35.7522474,-82.8700416,2405.4,14.65,-0.018,1.018,0,-1.1,-6.25,0.13,6.29
1174,2026-07-26T15:19:46.120,35.7522498,-82.8700415,2405.4,14.63,-0.013,1.012,0,0.2,-7.56,-0.30,5.91
1175,2026-07-26T15:19:46.160,35.7522521,-82.8700413,2405.4,14.87,-0.012,1.000,0,-0.6,-8.59,-0.46,5.28
1176,2026-07-26T15:19:46.200,35.7522544,-82.8700413,2405.4,14.65,-0.004,0.974,0,-0.7,-9.77,-0.35,4.41
1177,2026-07-26T15:19:46.240,35.7522567,-82.8700413,2405.4,14.22,0.008,0.940,0,-0.6,-10.45,-0.08,3.36
1178,2026-07-26T15:19:46.280,35.7522591,-82.8700413,2405.4,14.60,0.011,0.933,0,-0.2,-10.70,0.43,2.22
1179,2026-07-26T15:19:46.320,35.7522615,-82.8700413,2405.4,14.84,0.009,0.943,0,0.3,-10.79,0.98,0.95
1180,2026-07-26T15:19:46.360,35.7522640,-82.8700413,2405.4,15.36,0.008,0.959,0,0.5,-10.47,1.28,-0.20
1181,2026-07-26T15:19:46.400,35.7522665,-82.8700411,2405.4,15.21,0.007,0.983,0,0.6,-10.06,1.44,-1.21
1182,2026-07-26T15:19:46.440,35.7522689,-82.8700412,2405.4,15.05,0.007,1.007,0,0.5,-9.69,1.36,-2.07
1183,2026-07-26T15:19:46.480,35.7522712,-82.8700413,2405.4,14.92,0.012,1.018,0,1.6,-9.08,1.08,-2.76
1184,2026-07-26T15:19:46.520,35.7522737,-82.8700413,2405.3,15.19,0.019,1.017,0,2.4,-8.30,0.80,-3.36
1185,2026-07-26T15:19:46.560,35.7522761,-82.8700413,2405.2,15.18,0.021,1.009,0,1.7,-7.63,0.72,-3.99
1186,2026-07-26T15:19:46.600,35.7522786,-82.8700413,2405.2,15.24,0.029,0.986,0,1.6,-6.96,0.67,-4.59
1187,2026-07-26T15:19:46.640,35.7522810,-82.8700411,2405.3,15.13,0.034,0.967,0,2.0,-6.29,0.74,-5.11
1188,2026-07-26T15:19:46.680,35.7522834,-82.8700411,2405.3,15.30,0.028,0.967,0,1.7,-5.67,1.01,-5.50
1189,2026-07-26T15:19:46.720,35.7522859,-82.8700410,2405.4,15.48,0.033,0.963,0,2.6,-5.68,1.12,-5.89
1190,2026-07-26T15:19:46.760,35.7522884,-82.8700409,2405.4,15.47,0.041,0.957,0,2.5,-5.58,1.21,-6.35
1191,2026-07-26T15:19:46.800,35.7522908,-82.8700406,2405.4,15.37,0.041,0.967,0,2.1,-5.02,1.11,-6.88
1192,2026-07-26T15:19:46.840,35.7522934,-82.8700406,2405.3,15.54,0.036,0.984,0,1.1,-4.11,1.03,-7.54
1193,2026-07-26T15:19:46.880,35.7522959,-82.8700406,2405.3,15.63,0.032,0.987,0,1.5,-3.33,1.04,-8.34
1194,2026-07-26T15:19:46.920,35.7522984,-82.8700404,2405.3,15.59,0.027,0.988,0,2.5,-1.94,1.03,-9.07
1195,2026-07-26T15:19:46.960,35.7523009,-82.8700404,2405.3,15.56,0.020,1.001,0,2.5,-0.50,1.13,-9.60
1196,2026-07-26T15:19:47.040,35.7523060,-82.8700402,2405.3,15.88,0.028,0.985,0,3.7,0.76,1.37,-9.88
1197,2026-07-26T15:19:47.080,35.7523085,-82.8700399,2405.3,15.60,0.033,0.978,0,3.4,1.72,1.62,-9.99
1198,2026-07-26T15:19:47.120,35.7523110,-82.8700399,2405.3,15.67,0.030,0.980,0,2.5,2.83,1.81,-9.84
1199,2026-07-26T15:19:47.160,35.7523136,-82.8700397,2405.2,15.89,0.023,0.991,0,2.6,3.84,2.02,-9.49
1200,2026-07-26T15:19:47.200,35.7523161,-82.8700394,2405.2,15.81,0.025,0.985,0,3.1,4.46,2.01,-9.14
1201,2026-07-26T15:19:47.240,35.7523187,-82.8700392,2405.2,16.11,0.009,1.015,0,2.3,5.06,1.91,-8.76
1202,2026-07-26T15:19:47.280,35.7523214,-82.8700391,2405.2,16.37,0.017,1.002,0,2.1,5.79,1.61,-8.28
1203,2026-07-26T15:19:47.320,35.7523240,-82.8700389,2405.2,16.39,0.014,1.007,0,2.9,6.22,1.38,-7.83
1204,2026-07-26T15:19:47.360,35.7523265,-82.8700386,2405.3,16.01,0.018,0.999,0,3.7,6.58,1.09,-7.30
1205,2026-07-26T15:19:47.400,35.7523291,-82.8700385,2405.2,15.92,0.018,0.991,0,2.8,6.85,1.12,-6.65
1206,2026-07-26T15:19:47.440,35.7523316,-82.8700382,2405.2,15.90,0.023,0.976,0,3.0,7.10,1.08,-5.94
1207,2026-07-26T15:19:47.480,35.7523342,-82.8700379,2405.2,16.08,0.015,0.984,0,2.8,6.77,1.37,-5.26
1208,2026-07-26T15:19:47.520,35.7523369,-82.8700375,2405.1,16.57,0.019,0.977,0,2.2,6.71,1.57,-4.42
1209,2026-07-26T15:19:47.560,35.7523395,-82.8700372,2405.2,16.55,0.023,0.977,0,1.6,6.43,1.80,-3.55
1210,2026-07-26T15:19:47.600,35.7523421,-82.8700370,2405.2,16.41,0.028,0.979,0,1.5,6.05,1.95,-2.65
1211,2026-07-26T15:19:47.640,35.7523448,-82.8700367,2405.1,16.37,0.025,0.989,0,1.5,5.21,2.29,-1.90
1212,2026-07-26T15:19:47.680,35.7523473,-82.8700363,2405.2,16.24,0.030,0.993,0,1.3,4.82,2.36,-1.17
1213,2026-07-26T15:19:47.720,35.7523500,-82.8700360,2405.2,16.46,0.027,0.999,0,0.9,4.20,2.28,-0.63
1214,2026-07-26T15:19:47.760,35.7523527,-82.8700356,2405.2,17.04,0.019,1.009,0,0.4,3.32,2.23,-0.33
