# Lap Legend CSV Data Export (25 Hz Interpolated)
# https://DauntlessDevices.com
# 
# Track: Pueblo Motorsports Park
# Description: Demo #1 Red 2024 Toyota GR86 Trueno
# App Name: Lap Legend
# App Version: 0.9.1
# Device Model: Google Pixel 7a
# Device OS: Android 15
# GPS Device: RaceBox Mini
# GPS Rate: 25 Hz
# Vehicle Sensor Data: DauntlessOBD

"Time","Lap","GPS Latitude (deg)","GPS Longitude (deg)","GPS Altitude (m)","GPS Heading (deg)","GPS Speed (km/h)","GPS Accuracy (m)","GPS Distance 2D (m)","GPS Sample Rate (Hz)","Braking","Lap Number","Sector Number","Accel X (G)","Accel Y (G)","Accel Z (G)","Accel XYZ (G)","Yaw Rate (deg/s)","Barometer (kPa)","Engine RPM (RPM)","Vehicle Speed (km/h)","Engine Coolant Temperature (C)","Oil Temperature (C)","Track Mode","Intake Air Temperature (C)","Ambient Air Temperature (C)","Accelerator Pedal Position (%)","Brake Pedal (%)","Brake Pressure (MPa)","Steering Wheel Position (deg)","Clutch Pedal (%)","Tire Pressure 1 (kPa)","Tire Pressure 2 (kPa)","Tire Pressure 3 (kPa)","Tire Pressure 4 (kPa)"
0.000,0,38.2997432,-104.6762857,1482.9,170.6,16,1.8,0.03,3.75,0.00,0,0,0.00,-0.14,-0.02,0.14,-14.92,83.8,1951,15,88.00,77.00,1.00,30.00,7.50,4.00,0.00,0.00,-131.40,0.00,206.80,213.70,206.80,220.60
0.040,0,38.2997417,-104.6762855,1482.9,171.7,16,1.8,0.19,25.00,0.00,0,0,0.05,-0.13,0.00,0.13,-16.07,83.8,1958,15,88.00,77.00,1.00,30.00,7.50,4.00,0.00,0.00,-137.40,0.00,206.80,213.70,206.80,220.60
0.080,0,38.2997401,-104.6762852,1482.9,172.2,16,1.8,0.37,25.00,0.00,0,0,0.04,-0.13,0.01,0.13,-16.38,83.8,1966,15,88.00,77.00,1.00,30.00,7.50,4.00,0.00,0.00,-140.50,0.00,206.80,213.70,206.80,220.60
0.120,0,38.2997385,-104.6762850,1482.9,172.8,16,1.9,0.55,25.00,0.00,0,0,0.07,-0.14,0.05,0.16,-16.15,83.8,1972,15,88.00,77.00,1.00,30.00,7.50,4.00,0.00,0.00,-140.50,0.00,206.80,213.70,206.80,220.60
0.160,0,38.2997369,-104.6762848,1482.9,173.3,16,1.9,0.73,25.00,0.00,0,0,0.04,-0.11,0.04,0.13,-15.21,83.8,1976,15,88.00,77.00,1.00,30.00,7.50,4.50,0.00,0.00,-142.50,0.00,206.80,213.70,206.80,220.60
0.200,0,38.2997353,-104.6762846,1482.9,173.5,16,1.9,0.91,25.00,0.00,0,0,0.02,-0.08,0.03,0.09,-15.22,83.8,1977,15,88.00,77.00,1.00,30.00,7.50,4.82,0.00,0.00,-143.70,0.00,206.80,213.70,206.80,220.60
0.240,0,38.2997337,-104.6762844,1482.9,173.7,16,1.9,1.09,25.00,0.00,0,0,0.01,-0.13,0.01,0.13,-16.45,83.8,1971,15,88.00,77.00,1.00,30.00,7.50,4.16,0.00,0.00,-143.70,0.00,206.80,213.70,206.80,220.60
0.280,0,38.2997321,-104.6762843,1482.9,175.0,16,2.0,1.26,25.00,0.00,0,0,0.01,-0.16,-0.03,0.16,-15.55,83.8,1965,15,88.00,77.00,1.00,30.00,7.50,4.00,0.00,0.00,-143.80,0.00,206.80,213.70,206.80,220.60
0.320,0,38.2997306,-104.6762843,1482.9,176.5,16,2.0,1.43,25.00,0.00,0,0,0.02,-0.13,-0.04,0.14,-15.28,83.8,1959,15,88.00,77.00,1.00,30.00,7.50,4.00,0.00,0.00,-143.80,0.00,206.80,213.70,206.80,220.60
0.360,0,38.2997290,-104.6762843,1483.0,177.2,16,1.9,1.61,25.00,0.00,0,0,0.04,-0.11,-0.01,0.12,-15.79,83.8,1954,15,88.00,77.00,1.00,30.00,7.50,4.00,0.00,0.00,-143.80,0.00,206.80,213.70,206.80,220.60
0.400,0,38.2997274,-104.6762842,1482.9,177.3,16,2.1,1.78,25.00,0.00,0,0,0.03,-0.10,0.01,0.11,-15.61,83.8,1954,15,88.00,77.00,1.00,30.00,7.50,4.00,0.00,0.00,-143.80,0.00,206.80,213.70,206.80,220.60
0.440,0,38.2997259,-104.6762842,1482.9,178.1,15,2.2,1.95,25.00,0.00,0,0,0.02,-0.10,-0.01,0.10,-16.11,83.8,1955,15,88.00,77.00,1.00,30.00,7.50,4.00,0.00,0.00,-144.80,0.00,206.80,213.70,206.80,220.60
0.480,0,38.2997243,-104.6762841,1482.9,178.2,16,2.2,2.13,25.00,0.00,0,0,0.01,-0.12,-0.01,0.12,-16.70,83.8,1958,15,88.00,77.00,1.00,30.00,7.50,4.00,0.00,0.00,-144.80,0.00,206.80,213.70,206.80,220.60
0.520,0,38.2997227,-104.6762840,1482.9,177.9,16,2.3,2.30,25.00,0.00,0,0,-0.01,-0.15,-0.02,0.15,-16.97,83.9,1963,15,88.00,77.00,1.00,30.00,7.50,4.00,0.00,0.00,-147.60,0.00,206.80,213.70,206.80,220.60
0.560,0,38.2997211,-104.6762841,1482.9,178.9,16,2.5,2.48,25.00,0.00,0,0,0.01,-0.20,-0.01,0.20,-17.46,83.9,1968,15,88.00,77.00,1.00,30.00,7.50,4.00,0.00,0.00,-152.50,0.00,206.80,213.70,206.80,220.60
0.600,0,38.2997195,-104.6762841,1482.9,179.5,16,2.4,2.66,25.00,0.00,0,0,0.04,-0.22,0.02,0.22,-17.79,83.9,1971,15,88.00,77.00,1.00,30.00,7.50,4.00,0.00,0.00,-152.50,0.00,206.80,213.70,206.80,220.60
0.640,0,38.2997179,-104.6762842,1483.0,180.3,16,2.1,2.84,25.00,0.00,0,0,0.04,-0.21,0.05,0.22,-18.23,83.9,1969,15,88.00,77.00,1.00,30.00,7.50,4.00,0.00,0.00,-159.80,0.00,206.80,213.70,206.80,220.60
0.680,0,38.2997163,-104.6762843,1482.9,180.9,16,2.3,3.02,25.00,0.00,0,0,0.03,-0.20,0.04,0.20,-18.81,83.9,1964,15,88.00,77.00,1.00,30.00,7.50,4.31,0.00,0.00,-167.40,0.00,206.80,213.70,206.80,220.60
0.720,0,38.2997147,-104.6762843,1482.9,181.3,16,2.8,3.19,25.00,0.00,0,0,0.01,-0.19,0.02,0.19,-19.13,83.9,1955,15,88.00,77.00,1.00,30.00,7.50,5.00,0.00,0.00,-167.40,0.00,206.80,213.70,206.80,220.60
0.760,0,38.2997131,-104.6762844,1482.9,182.0,16,2.8,3.38,25.00,0.00,0,0,-0.01,-0.17,-0.01,0.17,-19.58,83.9,1949,15,88.00,77.00,1.00,30.00,7.50,5.00,0.00,0.00,-167.40,0.00,206.80,213.70,206.80,220.60
0.800,0,38.2997115,-104.6762846,1482.9,182.9,16,2.8,3.55,25.00,0.00,0,0,0.01,-0.17,-0.01,0.17,-20.00,83.9,1945,15,88.00,77.00,1.00,30.00,7.50,5.00,0.00,0.00,-176.20,0.00,206.80,213.70,206.80,220.60
0.840,0,38.2997099,-104.6762848,1482.9,183.8,16,2.7,3.73,25.00,0.00,0,0,0.02,-0.15,0.01,0.15,-20.15,83.9,1943,15,88.00,77.00,1.00,30.00,7.50,5.00,0.00,0.00,-179.60,0.00,206.80,213.70,206.80,220.60
0.880,0,38.2997083,-104.6762851,1482.9,184.8,16,2.5,3.91,25.00,0.00,0,0,0.04,-0.15,0.02,0.16,-20.67,83.9,1943,15,88.00,77.00,1.00,30.00,7.50,5.00,0.00,0.00,-179.60,0.00,206.80,213.70,206.80,220.60
0.920,0,38.2997067,-104.6762855,1483.0,185.7,16,2.5,4.09,25.00,0.00,0,0,0.05,-0.14,0.02,0.15,-20.94,83.9,1946,15,88.00,77.00,1.00,30.00,7.50,5.00,0.00,0.00,-179.60,0.00,206.80,213.70,206.80,220.60
0.960,0,38.2997051,-104.6762859,1482.9,186.8,16,2.4,4.27,25.00,0.00,0,0,0.05,-0.18,0.02,0.19,-21.07,83.9,1951,15,88.00,77.00,1.00,30.00,7.50,5.00,0.00,0.00,-183.90,0.00,206.80,213.70,206.80,220.60
1.000,0,38.2997035,-104.6762863,1483.0,187.7,16,2.1,4.45,25.00,0.00,0,0,0.03,-0.19,0.01,0.19,-20.92,83.9,1956,15,88.00,77.00,1.00,30.00,7.50,5.00,0.00,0.00,-187.10,0.00,206.80,213.70,206.80,220.60
1.040,0,38.2997020,-104.6762867,1483.0,188.5,16,1.9,4.62,25.00,0.00,0,0,0.03,-0.18,-0.01,0.19,-21.13,83.9,1963,15,88.00,77.00,1.00,30.00,7.50,5.00,0.00,0.00,-187.10,0.00,206.80,213.70,206.80,220.60
1.080,0,38.2997004,-104.6762871,1483.0,189.4,16,1.9,4.80,25.00,0.00,0,0,0.02,-0.18,-0.03,0.18,-21.40,83.9,1964,15,88.00,77.00,1.00,30.00,7.50,4.37,0.00,0.00,-190.60,0.00,206.80,213.70,206.80,220.60
1.120,0,38.2996989,-104.6762878,1483.0,190.9,16,1.9,4.98,25.00,0.00,0,0,0.01,-0.16,-0.01,0.16,-21.32,83.9,1962,15,88.00,77.00,1.00,30.00,7.50,4.00,0.00,0.00,-193.80,0.00,206.80,213.70,206.80,220.60
1.160,0,38.2996973,-104.6762883,1483.0,192.2,16,1.9,5.16,25.00,0.00,0,0,0.02,-0.17,0.00,0.17,-22.30,83.9,1957,15,88.00,77.00,1.00,30.00,7.50,4.00,0.00,0.00,-193.80,0.00,206.80,213.70,206.80,220.60
1.200,0,38.2996959,-104.6762890,1482.9,193.7,16,1.9,5.33,25.00,0.00,0,0,0.03,-0.19,0.01,0.19,-22.59,83.9,1952,15,88.00,77.00,1.00,30.00,7.50,4.59,0.00,0.00,-196.90,0.00,206.80,213.70,206.80,220.60
1.240,0,38.2996944,-104.6762898,1482.9,195.3,16,1.9,5.51,25.00,0.00,0,0,0.02,-0.19,0.00,0.19,-22.79,83.9,1947,15,88.00,77.00,1.00,30.00,7.50,5.00,0.00,0.00,-200.50,0.00,206.80,213.70,206.80,220.60
1.280,0,38.2996929,-104.6762904,1482.9,196.2,15,2.0,5.69,25.00,0.00,0,0,0.03,-0.12,0.01,0.13,-22.46,83.9,1946,15,88.00,77.00,1.00,30.00,7.50,5.00,0.00,0.00,-200.50,0.00,206.80,213.70,206.80,220.60
1.320,0,38.2996914,-104.6762910,1482.9,196.8,16,2.1,5.86,25.00,0.00,0,0,0.05,-0.08,0.04,0.11,-23.27,83.9,1947,15,88.00,77.00,1.00,30.00,7.50,5.00,0.00,0.00,-204.00,0.00,206.80,213.70,206.80,220.60
1.360,0,38.2996899,-104.6762916,1482.9,197.1,16,2.5,6.04,25.00,0.00,0,0,0.08,-0.12,0.08,0.16,-24.07,83.9,1951,15,88.00,77.00,1.00,30.00,7.50,5.00,0.00,0.00,-206.90,0.00,206.80,213.70,206.80,220.60
1.400,0,38.2996883,-104.6762922,1482.9,197.3,16,2.1,6.21,25.00,0.00,0,0,0.05,-0.18,0.06,0.20,-23.80,83.9,1960,15,88.00,77.00,1.00,30.00,7.50,5.00,0.00,0.00,-206.90,0.00,206.80,213.70,206.80,220.60
1.440,0,38.2996867,-104.6762929,1482.9,197.8,16,2.7,6.41,25.00,0.00,0,0,0.02,-0.24,0.01,0.25,-23.78,83.9,1969,15,88.00,77.00,1.00,30.00,7.50,5.00,0.00,0.00,-210.70,0.00,206.80,213.70,206.80,220.60
1.480,0,38.2996851,-104.6762936,1482.9,198.2,17,2.3,6.60,25.00,0.00,0,0,0.02,-0.29,-0.02,0.29,-23.95,83.9,1976,15,88.00,77.00,1.00,30.00,7.50,4.74,0.00,0.00,-214.10,0.00,206.80,213.70,206.80,220.60
1.520,0,38.2996836,-104.6762943,1482.9,198.6,16,2.8,6.77,25.00,0.00,0,0,0.01,-0.28,-0.03,0.28,-23.93,83.9,1980,15,88.00,77.00,1.00,30.00,7.50,4.05,0.00,0.00,-214.10,0.00,206.80,213.70,206.80,220.60
1.560,0,38.2996822,-104.6762951,1482.9,199.3,16,2.2,6.94,25.00,0.00,0,0,0.00,-0.24,-0.04,0.24,-23.56,83.9,1976,15,88.00,77.00,1.00,30.00,7.50,3.37,0.00,0.00,-215.70,0.00,206.80,213.70,206.80,220.60
1.600,0,38.2996808,-104.6762960,1482.9,200.0,16,2.2,7.12,25.00,0.00,0,0,0.00,-0.19,-0.02,0.19,-23.53,83.9,1968,15,88.00,77.00,1.00,30.00,7.50,3.00,0.00,0.00,-216.00,0.00,206.80,213.70,206.80,220.60
1.640,0,38.2996793,-104.6762968,1482.8,200.7,16,2.1,7.30,25.00,0.00,0,0,0.01,-0.18,0.01,0.18,-24.08,83.9,1959,15,88.00,77.00,1.00,30.00,7.50,3.04,0.00,0.00,-216.00,0.00,206.80,213.70,206.80,220.60
1.680,0,38.2996777,-104.6762976,1482.8,201.2,16,2.1,7.49,25.00,0.00,0,0,0.03,-0.22,0.03,0.22,-24.40,83.9,1949,15,88.00,77.00,1.00,30.00,7.50,3.74,0.00,0.00,-216.00,0.00,206.80,213.70,206.80,220.60
1.720,0,38.2996762,-104.6762986,1482.8,202.3,16,1.8,7.68,25.00,0.00,0,0,0.06,-0.27,0.05,0.28,-24.45,83.9,1946,15,88.00,77.00,1.00,30.00,7.50,4.40,0.00,0.00,-216.00,0.00,206.80,213.70,206.80,220.60
1.760,0,38.2996747,-104.6762995,1482.8,203.1,16,1.9,7.86,25.00,0.00,0,0,0.07,-0.30,0.05,0.31,-24.45,83.9,1946,15,88.00,77.00,1.00,30.00,7.50,5.00,0.00,0.00,-216.30,0.00,206.80,213.70,206.80,220.60
1.800,0,38.2996732,-104.6763006,1482.8,204.2,17,2.1,8.05,25.00,0.00,0,0,0.06,-0.26,0.02,0.27,-23.92,83.9,1952,15,88.00,77.00,1.00,30.00,7.50,5.00,0.00,0.00,-216.30,0.00,206.80,213.70,206.80,220.60
1.840,0,38.2996718,-104.6763016,1482.8,205.5,16,1.8,8.24,25.00,0.00,0,0,0.03,-0.15,0.00,0.16,-23.93,83.9,1958,15,88.00,77.00,1.00,30.00,7.50,4.73,0.00,0.00,-217.10,0.00,206.80,213.70,206.80,220.60
1.880,0,38.2996703,-104.6763027,1482.8,206.6,16,1.9,8.42,25.00,0.00,0,0,-0.01,-0.07,-0.01,0.08,-24.89,83.9,1964,15,88.00,77.00,1.00,30.00,7.50,4.07,0.00,0.00,-217.10,0.00,206.80,213.70,206.80,220.60
1.920,0,38.2996690,-104.6763038,1482.8,207.7,16,2.0,8.60,25.00,0.00,0,0,-0.01,-0.07,-0.01,0.07,-25.30,83.9,1961,15,88.00,77.00,1.00,30.00,7.50,4.00,0.00,0.00,-217.10,0.00,206.80,213.70,206.80,220.60
1.960,0,38.2996677,-104.6763049,1482.8,208.8,16,1.8,8.77,25.00,0.00,0,0,-0.00,-0.10,-0.00,0.10,-25.26,83.9,1954,15,88.00,77.00,1.00,30.00,7.50,4.29,0.00,0.00,-217.40,0.00,206.80,213.70,206.80,220.60
2.000,0,38.2996665,-104.6763061,1482.8,210.3,16,1.9,8.94,25.00,0.00,0,0,0.01,-0.18,-0.02,0.18,-24.98,83.9,1944,15,88.00,77.00,1.00,30.00,7.50,4.97,0.00,0.00,-217.40,0.00,206.80,213.70,206.80,220.60
2.040,0,38.2996652,-104.6763074,1482.7,211.9,16,2.2,9.12,25.00,0.00,0,0,0.02,-0.20,-0.03,0.21,-24.53,83.9,1937,15,88.00,77.00,1.00,30.00,7.50,5.00,0.00,0.00,-218.70,0.00,206.80,213.70,206.80,220.60
2.080,0,38.2996638,-104.6763086,1482.7,213.0,16,1.9,9.31,25.00,0.00,0,0,0.02,-0.22,-0.01,0.22,-24.65,83.9,1934,15,88.00,77.00,1.00,30.00,7.50,4.61,0.00,0.00,-218.70,0.00,206.80,213.70,206.80,220.60
2.120,0,38.2996625,-104.6763099,1482.8,213.6,16,1.9,9.49,25.00,0.00,0,0,0.05,-0.21,0.00,0.22,-24.93,83.9,1934,15,88.00,77.00,1.00,30.00,7.50,4.00,0.00,0.00,-219.50,0.00,206.80,213.70,206.80,220.60
2.160,0,38.2996611,-104.6763110,1482.8,213.7,17,1.9,9.68,25.00,0.00,0,0,0.05,-0.22,-0.01,0.22,-25.33,83.9,1941,15,88.00,77.00,1.00,30.00,7.50,4.00,0.00,0.00,-219.50,0.00,206.80,213.70,206.80,220.60
2.200,0,38.2996598,-104.6763124,1482.8,214.9,16,1.9,9.87,25.00,0.00,0,0,0.05,-0.23,0.02,0.23,-25.01,83.9,1949,15,88.00,77.00,1.00,30.00,7.50,4.00,0.00,0.00,-219.40,0.00,206.80,213.70,206.80,220.60
2.240,0,38.2996586,-104.6763138,1482.7,216.4,16,1.9,10.05,25.00,0.00,0,0,0.04,-0.30,0.07,0.31,-24.93,83.9,1956,15,88.00,77.00,1.00,30.00,7.50,4.15,0.00,0.00,-219.20,0.00,206.80,213.70,206.80,220.60
2.280,0,38.2996574,-104.6763151,1482.7,217.7,16,1.9,10.22,25.00,0.00,0,0,0.03,-0.27,0.07,0.28,-23.60,83.9,1961,15,88.00,77.00,1.00,30.00,7.50,4.82,0.00,0.00,-219.20,0.00,206.80,213.70,206.80,220.60
2.320,0,38.2996563,-104.6763165,1482.7,219.2,16,1.9,10.39,25.00,0.00,0,0,0.04,-0.23,0.05,0.24,-22.71,83.9,1959,15,88.00,77.00,1.00,30.00,7.50,4.49,0.00,0.00,-219.00,0.00,206.80,213.70,206.80,220.60
2.360,0,38.2996552,-104.6763179,1482.8,220.5,16,1.9,10.57,25.00,0.00,0,0,0.04,-0.18,0.02,0.18,-22.90,83.9,1953,15,88.00,77.00,1.00,30.00,7.50,3.79,0.00,0.00,-217.70,0.00,206.80,213.70,206.80,220.60
2.400,0,38.2996541,-104.6763194,1482.8,222.0,16,1.9,10.75,25.00,0.00,0,0,0.03,-0.14,-0.00,0.15,-23.40,83.9,1942,15,88.00,77.00,1.00,30.00,7.50,3.10,0.00,0.00,-217.70,0.00,206.80,213.70,206.80,220.60
2.440,0,38.2996530,-104.6763209,1482.8,223.5,16,1.9,10.93,25.00,0.00,0,0,0.02,-0.11,-0.03,0.12,-23.02,83.9,1933,15,88.00,77.00,1.00,30.00,7.50,3.56,0.00,0.00,-214.40,0.00,206.80,213.70,206.80,220.60
2.480,0,38.2996520,-104.6763223,1482.8,224.4,16,2.2,11.10,25.00,0.00,0,0,0.03,-0.11,-0.04,0.13,-23.56,83.9,1928,15,88.00,77.00,1.00,30.00,7.50,4.00,0.00,0.00,-210.90,0.00,206.80,213.70,206.80,220.60
2.520,0,38.2996509,-104.6763238,1482.8,225.4,16,2.2,11.27,25.00,0.00,0,0,0.04,-0.14,-0.04,0.15,-23.69,83.9,1927,15,88.00,77.00,1.00,30.00,7.50,4.00,0.00,0.00,-210.90,0.00,206.80,213.70,206.80,220.60
2.560,0,38.2996498,-104.6763253,1482.8,226.1,16,2.2,11.45,25.00,0.00,0,0,0.03,-0.12,-0.04,0.13,-22.93,83.9,1933,15,88.00,77.00,1.00,30.00,7.50,4.00,0.00,0.00,-208.90,0.00,206.80,213.70,206.80,220.60
2.600,0,38.2996487,-104.6763269,1482.8,226.5,16,2.2,11.64,25.00,0.00,0,0,0.05,-0.13,0.01,0.14,-23.21,83.9,1941,15,88.00,77.00,1.00,30.00,7.50,4.00,0.00,0.00,-207.80,0.00,206.80,213.70,206.80,220.60
2.640,0,38.2996477,-104.6763285,1482.8,227.5,16,2.2,11.82,25.00,0.00,0,0,0.07,-0.14,0.07,0.17,-23.54,83.9,1951,15,88.00,77.00,1.00,30.00,7.50,4.00,0.00,0.00,-207.80,0.00,206.80,213.70,206.80,220.60
2.680,0,38.2996467,-104.6763301,1482.8,228.6,16,2.1,12.00,25.00,0.00,0,0,0.03,-0.17,0.05,0.19,-22.91,83.9,1959,15,88.00,77.00,1.00,30.00,7.50,4.00,0.00,0.00,-206.10,0.00,206.80,213.70,206.80,220.60
2.720,0,38.2996458,-104.6763317,1482.8,229.5,16,2.1,12.17,25.00,0.00,0,0,0.01,-0.24,0.01,0.24,-22.11,83.9,1964,15,88.00,77.00,1.00,30.00,7.50,4.00,0.00,0.00,-203.40,0.00,206.80,213.70,206.80,220.60
2.760,0,38.2996449,-104.6763333,1482.8,230.5,16,2.1,12.34,25.00,0.00,0,0,0.00,-0.24,-0.02,0.24,-21.55,83.9,1962,15,88.00,77.00,1.00,30.00,7.50,4.00,0.00,0.00,-203.40,0.00,206.80,213.70,206.80,220.60
2.800,0,38.2996440,-104.6763350,1482.8,231.5,16,2.1,12.52,25.00,0.00,0,0,-0.01,-0.19,-0.01,0.19,-21.20,83.9,1955,15,88.00,77.00,1.00,30.00,7.50,3.36,0.00,0.00,-199.90,0.00,206.80,213.70,206.80,220.60
2.840,0,38.2996433,-104.6763367,1482.8,233.0,16,2.1,12.69,25.00,0.00,0,0,-0.01,-0.14,0.01,0.14,-20.65,83.9,1945,15,88.00,77.00,1.00,30.00,7.50,3.00,0.00,0.00,-195.30,0.00,206.80,213.70,206.80,220.60
2.880,0,38.2996424,-104.6763383,1482.7,234.0,16,2.1,12.86,25.00,0.00,0,0,-0.01,-0.11,0.01,0.11,-20.70,83.9,1934,15,88.00,77.00,1.00,30.00,7.50,3.05,0.00,0.00,-195.30,0.00,206.80,213.70,206.80,220.60
2.920,0,38.2996416,-104.6763400,1482.7,234.8,16,2.1,13.03,25.00,0.00,0,0,0.01,-0.11,0.02,0.11,-20.61,83.9,1923,15,88.00,77.00,1.00,30.00,7.50,3.72,0.00,0.00,-195.30,0.00,206.80,213.70,206.80,220.60
2.960,0,38.2996407,-104.6763418,1482.7,235.5,16,2.0,13.22,25.00,0.00,0,0,0.02,-0.11,0.01,0.11,-20.18,83.9,1917,15,88.00,77.00,1.00,30.00,7.50,4.35,0.00,0.00,-185.90,0.00,206.80,213.70,206.80,220.60
3.000,0,38.2996398,-104.6763435,1482.7,236.1,16,2.0,13.40,25.00,0.00,0,0,0.02,-0.12,-0.01,0.12,-19.70,83.9,1916,15,88.00,77.00,1.00,30.00,7.50,4.97,0.00,0.00,-185.90,0.00,206.80,213.70,206.80,220.60
3.040,0,38.2996390,-104.6763453,1482.7,236.9,16,2.1,13.58,25.00,0.00,0,0,0.02,-0.15,-0.04,0.16,-19.08,83.9,1927,15,88.00,77.00,1.00,30.00,7.50,4.43,0.00,0.00,-177.60,0.00,206.80,213.70,206.80,220.60
3.080,0,38.2996382,-104.6763471,1482.7,237.8,16,2.0,13.76,25.00,0.00,0,0,0.03,-0.12,-0.04,0.14,-18.11,83.9,1938,15,88.00,77.00,1.00,30.00,7.50,4.00,0.00,0.00,-171.00,0.00,206.80,213.70,206.80,220.60
3.120,0,38.2996374,-104.6763489,1482.7,238.7,16,1.9,13.94,25.00,0.00,0,0,0.02,0.01,0.00,0.04,-17.18,83.9,1949,15,88.00,77.00,1.00,30.00,7.50,4.00,0.00,0.00,-171.00,0.00,206.80,213.70,206.80,220.60
3.160,0,38.2996368,-104.6763506,1482.7,239.8,16,1.9,14.10,25.00,0.00,0,0,0.03,0.09,0.03,0.10,-17.34,83.9,1955,15,88.00,77.00,1.00,30.00,7.50,4.00,0.00,0.00,-163.10,0.00,206.80,213.70,206.80,220.60
3.200,0,38.2996361,-104.6763522,1482.7,240.4,16,1.9,14.27,25.00,0.00,0,0,0.02,0.04,0.06,0.09,-17.22,83.9,1958,15,88.00,77.00,1.00,30.00,7.50,4.09,0.00,0.00,-154.90,0.00,206.80,213.70,206.80,220.60
3.240,0,38.2996353,-104.6763538,1482.7,240.3,15,2.1,14.43,25.00,0.00,0,0,0.02,-0.07,0.07,0.11,-15.56,83.9,1953,15,88.00,77.00,1.00,30.00,7.50,5.25,0.00,0.00,-154.90,0.00,206.80,213.70,206.80,220.60
3.280,0,38.2996344,-104.6763553,1482.7,239.6,15,2.2,14.59,25.00,0.00,0,0,0.02,-0.16,0.06,0.17,-14.37,83.9,1947,15,88.00,77.00,1.00,30.00,7.50,5.79,0.00,0.00,-143.30,0.00,206.80,213.70,206.80,220.60
3.320,0,38.2996335,-104.6763570,1482.7,238.6,15,2.4,14.77,25.00,0.00,0,0,0.01,-0.15,0.02,0.15,-13.44,83.9,1940,15,88.00,77.00,1.00,30.00,7.50,5.19,0.00,0.00,-143.30,0.00,206.80,213.70,206.80,220.60
3.360,0,38.2996327,-104.6763588,1482.7,238.7,15,2.3,14.95,25.00,0.00,0,0,0.03,-0.17,0.00,0.17,-13.77,83.9,1935,15,88.00,77.00,1.00,30.00,7.50,4.60,0.00,0.00,-134.10,0.00,206.80,213.70,206.80,220.60
3.400,0,38.2996320,-104.6763605,1482.7,239.7,16,2.3,15.12,25.00,0.00,0,0,-0.00,-0.06,-0.03,0.07,-12.00,83.9,1931,15,88.00,77.00,1.00,30.00,7.50,4.01,0.00,0.00,-134.10,0.00,206.80,213.70,206.80,220.60
3.440,0,38.2996314,-104.6763624,1482.7,241.2,16,2.2,15.30,25.00,0.00,0,0,-0.01,0.04,-0.05,0.07,-10.91,83.9,1934,15,88.00,77.00,1.00,30.00,7.50,4.00,0.00,0.00,-122.10,0.00,206.80,213.70,206.80,220.60
3.480,0,38.2996307,-104.6763643,1482.7,242.6,16,2.2,15.48,25.00,0.00,0,0,0.02,0.08,-0.00,0.08,-10.36,83.9,1939,15,88.00,77.00,1.00,30.00,7.50,4.47,0.00,0.00,-104.50,0.00,206.80,213.70,206.80,220.60
3.520,0,38.2996300,-104.6763661,1482.7,243.3,16,2.2,15.66,25.00,0.00,0,0,0.05,0.05,0.03,0.08,-9.97,83.9,1949,15,88.00,77.00,1.00,30.00,7.50,5.80,0.00,0.00,-104.50,0.00,206.80,213.70,206.80,220.60
3.560,0,38.2996293,-104.6763677,1482.7,243.3,16,2.3,15.82,25.00,0.00,0,0,0.03,0.01,0.03,0.05,-8.64,83.9,1956,15,88.00,77.00,1.00,30.00,7.50,6.59,0.00,0.00,-93.20,0.00,206.80,213.70,206.80,220.60
3.600,0,38.2996286,-104.6763694,1482.7,243.5,15,2.3,15.99,25.00,0.00,0,0,0.00,0.01,-0.02,0.03,-7.40,83.9,1963,15,88.00,77.00,1.00,30.00,7.50,6.47,0.00,0.00,-82.60,0.00,206.80,213.70,206.80,220.60
3.640,0,38.2996280,-104.6763712,1482.7,243.6,15,2.3,16.16,25.00,0.00,0,0,-0.00,-0.01,-0.03,0.04,-7.40,83.9,1968,15,88.00,77.00,1.00,30.00,7.50,5.13,0.00,0.00,-82.60,0.00,206.80,213.70,206.80,220.60
3.680,0,38.2996273,-104.6763729,1482.7,244.1,15,2.3,16.32,25.00,0.00,0,0,0.00,-0.00,-0.04,0.04,-5.88,83.9,1967,15,88.00,77.00,1.00,30.00,7.50,4.42,0.00,0.00,-72.70,0.00,206.80,213.70,206.80,220.60
3.720,0,38.2996267,-104.6763747,1482.7,244.5,15,2.4,16.49,25.00,0.00,0,0,0.00,0.05,-0.02,0.07,-5.71,83.9,1965,15,88.00,77.00,1.00,30.00,7.50,4.00,0.00,0.00,-63.40,0.00,206.80,213.70,206.80,220.60
3.760,0,38.2996260,-104.6763764,1482.7,245.0,15,2.8,16.66,25.00,0.00,0,0,-0.02,0.08,-0.00,0.09,-5.87,83.9,1961,15,88.00,77.00,1.00,30.00,7.50,4.00,0.00,0.00,-63.40,0.00,206.80,213.70,206.80,220.60
3.800,0,38.2996254,-104.6763781,1482.7,245.2,15,2.3,16.83,25.00,0.00,0,0,-0.05,0.06,0.02,0.09,-5.39,83.9,1960,15,88.00,77.00,1.00,30.00,7.50,4.05,0.00,0.00,-55.20,0.00,206.80,213.70,206.80,220.60
3.840,0,38.2996248,-104.6763799,1482.7,245.5,15,2.3,17.00,25.00,0.00,0,0,-0.04,0.01,0.04,0.07,-4.89,83.9,1960,15,88.00,77.00,1.00,30.00,7.50,4.11,0.00,0.00,-55.20,0.00,206.80,213.70,206.80,220.60
3.880,0,38.2996241,-104.6763817,1482.7,245.2,15,2.3,17.17,25.00,0.00,0,0,-0.01,-0.03,0.07,0.08,-4.33,83.9,1959,15,88.00,77.00,1.00,30.00,7.50,4.17,0.00,0.00,-55.20,0.00,206.80,213.70,206.80,220.60
3.920,0,38.2996233,-104.6763834,1482.7,244.7,16,2.4,17.35,25.00,0.00,0,0,0.01,-0.04,0.07,0.08,-3.44,83.9,1959,15,88.00,77.00,1.00,30.00,7.50,4.23,0.00,0.00,-55.20,0.00,206.80,213.70,206.80,220.60
3.960,0,38.2996226,-104.6763852,1482.7,244.5,15,2.6,17.52,25.00,0.00,0,0,0.02,-0.03,0.05,0.07,-3.20,83.9,1959,15,88.00,77.00,1.00,30.00,7.50,4.29,0.00,0.00,-55.20,0.00,206.80,213.70,206.80,220.60
4.000,0,38.2996220,-104.6763869,1482.7,244.9,15,2.6,17.68,25.00,0.00,0,0,0.02,-0.01,0.03,0.04,-3.55,83.9,1959,15,88.00,77.00,1.00,30.00,7.50,4.35,0.00,0.00,-55.20,0.00,206.80,213.70,206.80,220.60
4.040,0,38.2996215,-104.6763886,1482.7,245.6,15,2.6,17.84,25.00,0.00,0,0,0.02,-0.01,0.01,0.03,-4.29,83.9,1958,15,88.00,77.00,1.00,30.00,7.50,4.41,0.00,0.00,-55.20,0.00,206.80,213.70,206.80,220.60
4.080,0,38.2996209,-104.6763904,1482.7,246.3,15,2.6,18.01,25.00,0.00,0,0,0.01,-0.01,-0.00,0.03,-3.90,83.9,1958,15,88.00,77.00,1.00,30.00,7.50,4.47,0.00,0.00,-55.20,0.00,206.80,213.70,206.80,220.60
4.120,0,38.2996203,-104.6763922,1482.7,246.5,15,2.3,18.18,25.00,0.00,0,0,-0.02,0.00,-0.02,0.03,-3.56,83.9,1958,15,88.00,77.00,1.00,30.00,7.50,4.53,0.00,0.00,-55.20,0.00,206.80,213.70,206.80,220.60
4.160,0,38.2996195,-104.6763939,1482.7,246.0,15,2.3,18.36,25.00,0.00,0,0,-0.02,-0.00,-0.03,0.03,-3.71,83.9,1958,15,88.00,77.00,1.00,30.00,7.50,4.59,0.00,0.00,-55.20,0.00,206.80,213.70,206.80,220.60
4.200,0,38.2996189,-104.6763958,1482.7,245.8,16,2.2,18.54,25.00,0.00,0,0,-0.02,0.00,-0.02,0.03,-3.59,83.9,1957,15,88.00,77.00,1.00,30.00,7.50,4.65,0.00,0.00,-55.20,0.00,206.80,213.70,206.80,220.60
4.240,0,38.2996182,-104.6763976,1482.7,246.0,16,2.0,18.71,25.00,0.00,0,0,-0.02,0.02,0.00,0.03,-3.45,83.9,1957,15,88.00,77.00,1.00,30.00,7.50,4.71,0.00,0.00,-55.20,0.00,206.80,213.70,206.80,220.60
4.280,0,38.2996176,-104.6763994,1482.7,246.5,16,2.0,18.88,25.00,0.00,0,0,-0.02,0.05,0.00,0.06,-3.81,83.9,1957,15,88.00,77.00,1.00,30.00,7.50,4.77,0.00,0.00,-55.20,0.00,206.80,213.70,206.80,220.60
4.320,0,38.2996171,-104.6764012,1482.7,246.9,15,2.0,19.05,25.00,0.00,0,0,-0.02,0.04,-0.01,0.05,-4.11,83.9,1957,15,88.00,77.00,1.00,30.00,7.50,4.83,0.00,0.00,-55.20,0.00,206.80,213.70,206.80,220.60
4.360,0,38.2996165,-104.6764030,1482.7,247.4,15,2.0,19.22,25.00,0.00,0,0,-0.03,-0.02,-0.03,0.07,-4.24,83.9,1956,15,88.00,77.00,1.00,30.00,7.50,4.89,0.00,0.00,-55.20,0.00,206.80,213.70,206.80,220.60
4.400,0,38.2996159,-104.6764048,1482.7,247.6,15,2.0,19.39,25.00,0.00,0,0,0.03,-0.11,0.02,0.12,-3.99,83.9,1956,15,88.00,77.00,1.00,30.00,7.50,4.95,0.00,0.00,-55.20,0.00,206.80,213.70,206.80,220.60
4.440,0,38.2996152,-104.6764066,1482.7,247.1,15,2.0,19.57,25.00,0.00,0,0,0.03,-0.02,0.06,0.06,-3.19,83.9,1956,15,88.01,77.00,1.00,30.00,7.50,5.00,0.00,0.00,-48.10,0.00,206.80,213.70,206.80,220.60
4.480,0,38.2996146,-104.6764083,1482.7,246.9,15,2.0,19.73,25.00,0.00,0,0,0.02,-0.03,0.06,0.07,-3.99,83.9,1956,15,88.07,77.00,1.00,30.00,7.50,5.00,0.00,0.00,-48.10,0.00,206.80,213.70,206.80,220.60
4.520,0,38.2996140,-104.6764101,1482.7,247.2,15,2.0,19.90,25.00,0.00,0,0,0.01,-0.04,0.06,0.08,-4.19,83.9,1956,15,88.13,77.00,1.00,30.00,7.50,5.00,0.00,0.00,-48.10,0.00,206.80,213.70,206.80,220.60
4.560,0,38.2996135,-104.6764119,1482.7,247.7,15,2.0,20.07,25.00,0.00,0,0,-0.04,-0.02,0.01,0.05,-3.48,83.9,1956,15,88.19,77.00,1.00,30.00,7.50,5.00,0.00,0.00,-48.10,0.00,206.80,213.70,206.80,220.60
4.600,0,38.2996129,-104.6764137,1482.7,247.8,15,2.0,20.24,25.00,0.00,0,0,-0.04,-0.00,-0.01,0.04,-3.23,83.9,1956,15,88.25,77.00,1.00,30.00,7.50,5.00,0.00,0.00,-48.10,0.00,206.80,213.70,206.80,220.60
4.640,0,38.2996123,-104.6764154,1482.7,247.6,15,2.0,20.40,25.00,0.00,0,0,-0.02,-0.03,-0.00,0.03,-3.64,83.9,1956,15,88.31,77.00,1.00,30.00,7.50,5.00,0.00,0.00,-48.10,0.00,206.80,213.70,206.80,220.60
4.680,0,38.2996117,-104.6764171,1482.7,247.5,15,1.9,20.57,25.00,0.00,0,0,-0.03,-0.02,0.01,0.04,-3.29,83.9,1956,15,88.37,77.00,1.00,30.00,7.50,5.00,0.00,0.00,-48.10,0.00,206.80,213.70,206.80,220.60
4.720,0,38.2996111,-104.6764190,1482.7,247.7,15,1.9,20.75,25.00,0.00,0,0,-0.02,0.02,-0.02,0.04,-3.11,83.9,1956,15,88.43,77.00,1.00,30.00,7.50,5.00,0.00,0.00,-48.10,0.00,206.80,213.70,206.80,220.60
4.760,0,38.2996105,-104.6764209,1482.7,248.1,16,1.9,20.92,25.00,0.00,0,0,-0.01,0.05,-0.01,0.05,-2.57,83.9,1956,15,88.49,77.00,1.00,30.00,7.50,5.00,0.00,0.00,-48.10,0.00,206.80,213.70,206.80,220.60
4.800,0,38.2996100,-104.6764227,1482.7,248.7,16,1.9,21.09,25.00,0.00,0,0,0.03,0.04,0.03,0.07,-3.06,83.9,1956,15,88.55,77.00,1.00,30.00,7.50,5.00,0.00,0.00,-48.10,0.00,206.80,213.70,206.80,220.60
4.840,0,38.2996094,-104.6764246,1482.7,249.4,16,1.9,21.27,25.00,0.00,0,0,0.03,0.07,0.02,0.08,-1.19,83.9,1956,15,88.61,77.00,1.00,30.00,7.50,5.00,0.00,0.00,-48.10,0.00,206.80,213.70,206.80,220.60
4.880,0,38.2996089,-104.6764264,1482.7,249.7,16,1.8,21.44,25.00,0.00,0,0,0.03,0.09,0.01,0.10,-0.90,83.9,1956,15,88.67,77.00,1.00,30.00,7.50,5.00,0.00,0.00,-48.10,0.00,206.80,213.70,206.80,220.60
4.920,0,38.2996083,-104.6764281,1482.7,248.7,15,1.8,21.60,25.00,0.00,0,0,0.01,0.12,-0.02,0.12,0.53,83.9,1956,15,88.73,77.00,1.00,30.00,7.50,5.00,0.00,0.00,-48.10,0.00,206.80,213.70,206.80,220.60
4.960,0,38.2996077,-104.6764299,1482.8,248.2,15,1.8,21.77,25.00,0.00,0,0,-0.01,0.13,-0.03,0.14,1.43,83.9,1956,15,88.79,77.00,1.00,30.00,7.50,5.00,0.00,0.00,-48.10,0.00,206.80,213.70,206.80,220.60
5.000,0,38.2996071,-104.6764317,1482.8,248.2,15,1.8,21.94,25.00,0.00,0,0,-0.01,0.11,-0.01,0.11,2.67,83.9,1956,15,88.85,77.00,1.00,30.00,7.50,5.00,0.00,0.00,-48.10,0.00,206.80,213.70,206.80,220.60
5.040,0,38.2996065,-104.6764334,1482.8,248.1,15,1.8,22.10,25.00,0.00,0,0,-0.02,0.14,0.01,0.14,3.23,83.9,1956,15,88.91,77.00,1.00,30.00,7.50,5.00,0.00,0.00,-48.10,0.00,206.80,213.70,206.80,220.60
5.080,0,38.2996059,-104.6764351,1482.7,247.8,15,1.9,22.27,25.00,0.00,0,0,-0.01,0.16,0.02,0.16,4.79,83.9,1956,15,88.97,77.00,1.00,30.00,7.50,5.00,0.00,0.00,-48.10,0.00,206.80,213.70,206.80,220.60
5.120,0,38.2996053,-104.6764368,1482.7,246.9,15,1.9,22.43,25.00,0.00,0,0,-0.01,0.14,0.03,0.14,6.20,83.9,1949,15,89.00,77.00,1.00,30.00,7.50,5.27,0.00,0.00,46.70,0.00,206.80,213.70,206.80,220.60
5.160,0,38.2996047,-104.6764385,1482.7,246.7,15,1.9,22.59,25.00,0.00,0,0,-0.01,0.14,0.01,0.15,8.09,83.9,1934,15,89.00,77.00,1.00,30.00,7.50,5.87,0.00,0.00,46.70,0.00,206.80,213.70,206.80,220.60
5.200,0,38.2996041,-104.6764402,1482.7,246.6,15,1.9,22.76,25.00,0.00,0,0,-0.01,0.18,-0.02,0.18,9.67,83.9,1927,15,89.00,77.00,1.00,30.00,7.50,6.00,0.00,0.00,65.30,0.00,206.80,213.70,206.80,220.60
5.240,0,38.2996035,-104.6764419,1482.7,246.1,15,1.9,22.92,25.00,0.00,0,0,0.01,0.18,-0.02,0.18,10.44,83.9,1924,15,89.00,77.00,1.00,30.00,7.50,6.00,0.00,0.00,83.30,0.00,206.80,213.70,206.80,220.60
5.280,0,38.2996029,-104.6764437,1482.7,245.9,15,1.9,23.09,25.00,0.00,0,0,0.03,0.18,-0.02,0.18,11.39,83.9,1928,15,89.00,77.00,1.00,30.00,7.50,6.00,0.00,0.00,83.30,0.00,206.80,213.70,206.80,220.60
5.320,0,38.2996022,-104.6764454,1482.7,245.9,15,1.9,23.26,25.00,0.00,0,0,0.03,0.21,-0.02,0.21,12.48,83.9,1939,15,89.00,77.00,1.00,30.00,7.50,6.00,0.00,0.00,99.00,0.00,206.80,213.70,206.80,220.60
5.360,0,38.2996016,-104.6764470,1482.8,245.4,15,2.0,23.42,25.00,0.00,0,0,0.03,0.23,-0.01,0.23,13.54,83.9,1950,15,89.00,77.25,1.00,30.00,7.50,6.00,0.00,0.00,113.60,0.00,206.80,213.70,206.80,220.60
5.400,0,38.2996009,-104.6764486,1482.8,244.5,15,2.0,23.58,25.00,0.00,0,0,0.02,0.24,0.01,0.24,14.63,83.9,1960,15,89.00,77.86,1.00,30.00,7.50,6.00,0.00,0.00,113.60,0.00,206.80,213.70,206.80,220.60
5.440,0,38.2996002,-104.6764502,1482.8,243.5,14,2.1,23.74,25.00,0.00,0,0,0.01,0.24,0.01,0.24,15.65,83.9,1963,15,89.00,78.00,1.00,30.00,7.50,6.00,0.00,0.00,128.70,0.00,206.80,213.70,206.80,220.60
5.480,0,38.2995995,-104.6764518,1482.8,242.6,14,2.3,23.90,25.00,0.00,0,0,0.00,0.22,0.00,0.22,16.50,83.9,1960,15,89.00,78.00,1.00,30.00,7.50,6.00,0.00,0.00,143.80,0.00,206.80,213.70,206.80,220.60
5.520,0,38.2995987,-104.6764534,1482.8,241.5,15,2.0,24.07,25.00,0.00,0,0,0.01,0.23,0.02,0.23,17.50,83.9,1947,15,89.00,78.00,1.00,30.00,7.50,6.00,0.00,0.00,143.80,0.00,206.80,213.70,206.80,220.60
5.560,0,38.2995978,-104.6764548,1482.8,239.4,14,2.3,24.22,25.00,0.00,0,0,0.02,0.23,0.02,0.24,18.46,83.9,1936,15,89.00,78.00,1.00,30.00,7.50,6.00,0.00,0.00,157.70,0.00,206.80,213.70,206.80,220.60
5.600,0,38.2995969,-104.6764562,1482.8,237.3,14,2.3,24.38,25.00,0.00,0,0,0.02,0.23,0.00,0.23,19.26,83.9,1926,15,89.00,78.00,1.00,30.00,7.50,6.00,0.00,0.00,170.20,0.00,206.80,213.70,206.80,220.60
5.640,0,38.2995960,-104.6764577,1482.8,235.9,14,2.1,24.55,25.00,0.00,0,0,0.03,0.25,-0.02,0.25,20.38,83.9,1920,15,89.00,78.00,1.00,30.00,7.50,6.00,0.00,0.00,170.20,0.00,206.80,213.70,206.80,220.60
5.680,0,38.2995952,-104.6764591,1482.8,234.7,14,2.1,24.70,25.00,0.00,0,0,0.02,0.28,-0.05,0.29,21.49,83.9,1921,15,89.00,78.00,1.00,30.00,7.50,6.00,0.00,0.00,181.80,0.00,206.80,213.70,206.80,220.60
5.720,0,38.2995943,-104.6764605,1482.8,233.8,14,2.2,24.86,25.00,0.00,0,0,0.02,0.28,-0.05,0.29,22.22,83.9,1926,15,89.00,78.00,1.00,30.00,7.50,6.17,0.00,0.00,193.00,0.00,206.80,213.70,206.80,220.60
5.760,0,38.2995934,-104.6764620,1482.8,233.5,14,2.1,25.02,25.00,0.00,0,0,0.08,0.24,0.02,0.26,22.64,83.9,1933,15,89.00,78.00,1.00,30.00,7.50,6.86,0.00,0.00,193.00,0.00,206.80,213.70,206.80,220.60
5.800,0,38.2995925,-104.6764634,1482.8,232.6,14,2.2,25.18,25.00,0.00,0,0,0.08,0.24,0.05,0.26,23.20,83.9,1943,15,89.00,78.00,1.00,30.00,7.50,7.52,0.00,0.00,202.40,0.00,206.80,213.70,206.80,220.60
5.840,0,38.2995915,-104.6764648,1482.8,231.6,14,2.2,25.34,25.00,0.00,0,0,0.03,0.25,-0.00,0.25,23.84,83.9,1951,15,89.00,78.00,1.00,30.00,7.50,7.81,0.00,0.00,210.70,0.00,206.80,213.70,206.80,220.60
5.880,0,38.2995905,-104.6764661,1482.8,229.8,14,2.3,25.50,25.00,0.00,0,0,-0.01,0.22,-0.03,0.23,23.95,83.9,1957,15,89.00,78.00,1.00,30.00,7.50,7.14,0.00,0.00,210.70,0.00,206.80,213.70,206.80,220.60
5.920,0,38.2995894,-104.6764674,1482.8,228.7,14,2.5,25.66,25.00,0.00,0,0,0.03,0.13,0.02,0.14,23.75,83.9,1955,15,89.00,78.00,1.00,30.00,7.50,7.00,0.00,0.00,215.80,0.00,206.80,213.70,206.80,220.60
5.960,0,38.2995885,-104.6764687,1482.8,228.0,14,2.5,25.82,25.00,0.00,0,0,0.04,0.14,0.05,0.15,24.17,83.9,1950,15,89.00,78.00,1.00,30.00,7.50,7.00,0.00,0.00,219.60,0.00,206.80,213.70,206.80,220.60
6.000,0,38.2995875,-104.6764701,1482.8,227.7,15,2.1,25.99,25.00,0.00,0,0,0.03,0.19,0.04,0.20,24.86,83.9,1941,15,89.00,78.00,1.00,30.00,7.50,7.00,0.00,0.00,219.60,0.00,206.80,213.70,206.80,220.60
6.040,0,38.2995864,-104.6764715,1482.8,227.3,15,2.1,26.15,25.00,0.00,0,0,-0.01,0.20,-0.01,0.20,25.44,83.9,1935,15,89.00,78.00,1.00,30.00,7.50,7.00,0.00,0.00,222.60,0.00,206.80,213.70,206.80,220.60
6.080,0,38.2995855,-104.6764727,1482.8,226.8,14,1.9,26.31,25.00,0.00,0,0,-0.00,0.23,-0.04,0.23,26.18,83.9,1931,15,89.00,78.00,1.00,30.00,7.50,7.03,0.00,0.00,224.80,0.00,206.80,213.70,206.80,220.60
6.120,0,38.2995845,-104.6764741,1482.8,226.7,14,1.9,26.47,25.00,0.00,0,0,0.04,0.32,0.01,0.32,25.50,83.9,1934,15,89.00,78.00,1.00,30.00,7.50,7.63,0.00,0.00,224.80,0.00,206.80,213.70,206.80,220.60
6.160,0,38.2995834,-104.6764753,1482.8,226.1,14,1.8,26.62,25.00,0.00,0,0,0.04,0.32,-0.03,0.33,23.98,83.9,1938,15,89.00,78.00,1.00,30.00,7.50,8.00,0.00,0.00,225.50,0.00,206.80,213.70,206.80,220.60
6.200,0,38.2995823,-104.6764765,1482.8,225.0,14,1.8,26.79,25.00,0.00,0,0,0.00,0.25,-0.08,0.26,24.18,83.9,1945,15,89.00,78.00,1.00,30.00,7.50,8.00,0.00,0.00,225.50,0.00,206.80,213.70,206.80,220.60
6.240,0,38.2995811,-104.6764777,1482.8,223.3,15,1.8,26.95,25.00,0.00,0,0,0.01,0.19,-0.05,0.20,25.19,83.9,1951,15,89.00,78.00,1.00,30.00,7.50,8.00,0.00,0.00,225.50,0.00,206.80,213.70,206.80,220.60
6.280,0,38.2995799,-104.6764787,1482.8,221.8,14,1.9,27.12,25.00,0.00,0,0,0.05,0.20,0.02,0.21,24.42,83.9,1956,15,89.00,78.00,1.00,30.00,7.50,8.00,0.00,0.00,225.30,0.00,206.80,213.70,206.80,220.60
6.320,0,38.2995788,-104.6764798,1482.8,220.3,14,2.1,27.27,25.00,0.00,0,0,0.04,0.22,0.04,0.23,24.88,83.9,1958,15,89.00,78.00,1.00,30.00,7.50,8.00,0.00,0.00,225.30,0.00,206.80,213.70,206.80,220.60
6.360,0,38.2995775,-104.6764808,1482.8,218.7,15,2.1,27.44,25.00,0.00,0,0,0.01,0.26,0.00,0.27,26.13,83.9,1958,15,89.00,78.00,1.00,30.00,7.50,8.00,0.00,0.00,225.30,0.00,206.80,213.70,206.80,220.60
6.400,0,38.2995763,-104.6764818,1482.8,217.0,14,2.0,27.60,25.00,0.00,0,0,0.02,0.26,-0.02,0.27,24.65,83.9,1958,15,89.00,78.00,1.00,30.00,7.50,8.00,0.00,0.00,225.30,0.00,206.80,213.70,206.80,220.60
6.440,0,38.2995751,-104.6764827,1482.8,215.4,14,2.0,27.76,25.00,0.00,0,0,0.03,0.20,-0.00,0.20,24.17,83.9,1960,15,89.00,78.00,1.00,30.00,7.50,8.00,0.00,0.00,225.30,0.00,206.80,213.70,206.80,220.60
6.480,0,38.2995738,-104.6764837,1482.8,214.0,14,2.0,27.92,25.00,0.00,0,0,0.00,0.18,0.01,0.18,25.40,83.9,1961,15,89.00,78.00,1.00,30.00,7.50,8.97,0.00,0.00,225.30,0.00,206.80,213.70,206.80,220.60
6.520,0,38.2995726,-104.6764845,1482.8,212.5,14,2.0,28.08,25.00,0.00,0,0,0.00,0.16,0.03,0.17,25.17,83.9,1963,15,89.00,78.00,1.00,30.00,7.50,10.12,0.00,0.00,225.30,0.00,206.80,213.70,206.80,220.60
6.560,0,38.2995713,-104.6764855,1482.8,211.8,14,1.9,28.24,25.00,0.00,0,0,0.02,0.14,0.03,0.15,25.95,83.9,1961,15,89.00,78.00,1.00,30.00,7.50,10.81,0.00,0.00,225.30,0.00,206.80,213.70,206.80,220.60
6.600,0,38.2995699,-104.6764866,1482.8,211.5,15,2.3,28.42,25.00,0.00,0,0,0.00,0.24,0.02,0.24,27.23,83.9,1958,15,89.00,78.00,1.00,30.00,7.50,10.50,0.00,0.00,225.30,0.00,206.80,213.70,206.80,220.60
6.640,0,38.2995686,-104.6764876,1482.8,211.8,15,2.3,28.60,25.00,0.00,0,0,0.03,0.33,0.02,0.33,26.00,83.9,1957,15,89.00,78.00,1.00,30.00,7.50,10.19,0.00,0.00,225.30,0.00,206.80,213.70,206.80,220.60
6.680,0,38.2995673,-104.6764886,1482.8,211.5,15,2.3,28.76,25.00,0.00,0,0,0.07,0.28,0.00,0.29,24.16,83.9,1958,15,89.00,78.00,1.00,30.00,7.50,10.89,0.00,0.00,225.30,0.00,206.80,213.70,206.80,220.60
6.720,0,38.2995660,-104.6764894,1482.8,210.3,15,2.2,28.92,25.00,0.00,0,0,0.07,0.28,-0.01,0.29,24.20,83.9,1963,15,89.00,78.00,1.00,30.00,7.50,12.13,0.00,0.00,225.80,0.00,206.80,213.70,206.80,220.60
6.760,0,38.2995647,-104.6764901,1482.8,208.1,15,1.9,29.08,25.00,0.00,0,0,0.05,0.26,-0.03,0.27,24.85,83.9,1969,15,89.00,78.00,1.00,30.00,7.50,13.00,0.00,0.00,225.90,0.00,206.80,213.70,206.80,220.60
6.800,0,38.2995633,-104.6764904,1482.8,203.8,15,1.9,29.24,25.00,0.00,0,0,0.04,0.25,-0.05,0.26,25.21,83.9,1976,15,89.00,78.00,1.00,30.00,7.50,13.00,0.00,0.00,225.90,0.00,206.80,213.70,206.80,220.60
6.840,0,38.2995620,-104.6764912,1482.8,202.5,14,1.8,29.40,25.00,0.00,0,0,0.01,0.24,-0.06,0.24,26.30,83.9,1984,15,89.00,78.00,1.00,30.00,7.50,12.62,0.00,0.00,225.80,0.00,206.80,213.70,206.80,220.60
6.880,0,38.2995606,-104.6764919,1482.8,202.2,15,1.8,29.57,25.00,0.00,0,0,-0.04,0.27,-0.05,0.28,26.84,83.9,1991,15,89.00,78.00,1.00,30.00,7.50,12.02,0.00,0.00,225.80,0.00,206.80,213.70,206.80,220.60
6.920,0,38.2995592,-104.6764925,1482.8,201.1,14,1.8,29.73,25.00,0.00,0,0,0.00,0.29,-0.02,0.29,25.72,83.9,1991,15,89.00,78.00,1.00,30.00,7.50,12.65,0.00,0.00,225.70,0.00,206.80,213.70,206.80,220.60
6.960,0,38.2995578,-104.6764931,1482.8,200.1,15,1.8,29.90,25.00,0.00,0,0,0.04,0.28,0.01,0.28,24.75,83.9,1990,15,89.00,78.00,1.00,30.00,7.50,13.00,0.00,0.00,225.60,0.00,206.80,213.70,206.80,220.60
7.000,0,38.2995563,-104.6764938,1482.8,199.4,15,1.8,30.08,25.00,0.00,0,0,0.03,0.18,0.06,0.20,24.98,83.9,1987,15,89.00,78.00,1.00,30.00,7.50,13.00,0.00,0.00,225.60,0.00,206.80,213.70,206.80,220.60
7.040,0,38.2995548,-104.6764944,1482.8,199.0,15,1.8,30.25,25.00,0.00,0,0,-0.01,0.10,0.08,0.13,27.03,83.9,1985,15,89.00,78.00,1.00,30.00,7.50,14.25,0.00,0.00,225.00,0.00,206.80,213.70,206.80,220.60
7.080,0,38.2995534,-104.6764951,1482.8,198.7,15,1.8,30.41,25.00,0.00,0,0,-0.02,0.11,0.02,0.11,26.80,83.9,1986,15,89.00,78.00,1.00,30.00,7.50,15.00,0.00,0.00,224.70,0.00,206.80,213.70,206.80,220.60
7.120,0,38.2995521,-104.6764957,1482.8,198.5,15,1.8,30.57,25.00,0.00,0,0,-0.00,0.19,-0.04,0.19,26.70,83.9,1991,15,89.00,78.00,1.00,30.00,7.50,15.00,0.00,0.00,224.70,0.00,206.80,213.70,206.80,220.60
7.160,0,38.2995507,-104.6764963,1482.8,198.5,15,1.8,30.74,25.00,0.00,0,0,-0.00,0.38,-0.01,0.38,26.01,83.9,2001,15,89.00,78.00,1.00,30.00,7.50,14.39,0.00,0.00,223.20,0.00,206.80,213.70,206.80,220.60
7.200,0,38.2995492,-104.6764970,1482.8,198.2,15,1.8,30.91,25.00,0.00,0,0,0.06,0.42,-0.07,0.43,24.13,83.9,2013,15,89.00,78.00,1.00,30.00,7.50,14.47,0.00,0.00,222.20,0.00,206.80,213.70,206.80,220.60
7.240,0,38.2995478,-104.6764974,1482.9,196.5,15,1.8,31.07,25.00,0.00,0,0,0.04,0.25,-0.01,0.25,23.15,83.9,2028,16,89.00,78.00,1.00,30.00,7.50,15.72,0.00,0.00,222.20,0.00,206.80,213.70,206.80,220.60
7.280,0,38.2995463,-104.6764977,1482.9,194.0,15,1.8,31.24,25.00,0.00,0,0,0.01,0.23,-0.01,0.24,25.44,83.8,2043,16,89.00,78.00,1.00,30.00,7.50,16.00,0.00,0.00,219.30,0.00,206.80,213.70,206.80,220.60
7.320,0,38.2995449,-104.6764979,1482.9,191.9,15,1.8,31.40,25.00,0.00,0,0,0.00,0.17,0.00,0.17,24.30,83.8,2057,16,89.00,78.00,1.00,30.00,7.50,15.89,0.00,0.00,214.20,0.00,206.80,213.70,206.80,220.60
7.360,0,38.2995434,-104.6764982,1482.9,190.0,15,1.8,31.57,25.00,0.00,0,0,-0.04,0.13,-0.01,0.14,24.30,83.8,2062,16,89.00,78.00,1.00,30.00,7.50,15.25,0.00,0.00,214.20,0.00,206.80,213.70,206.80,220.60
7.400,0,38.2995418,-104.6764985,1482.8,188.8,15,1.9,31.75,25.00,0.00,0,0,-0.05,0.15,-0.01,0.16,24.01,83.8,2066,16,89.00,78.00,1.00,30.00,7.50,15.00,0.00,0.00,207.40,0.00,206.80,213.70,206.80,220.60
7.440,0,38.2995403,-104.6764989,1482.8,188.9,15,2.1,31.92,25.00,0.00,0,0,-0.03,0.18,0.01,0.18,22.51,83.8,2068,16,89.00,78.00,1.00,30.00,7.50,15.03,0.00,0.00,199.10,0.00,206.80,213.70,206.80,220.60
7.480,0,38.2995387,-104.6764993,1482.8,189.4,15,2.2,32.10,25.00,0.00,0,0,-0.03,0.17,0.01,0.18,22.04,83.8,2073,16,89.00,78.00,1.00,30.00,7.50,15.68,0.00,0.00,199.10,0.00,206.80,213.70,206.80,220.60
7.520,0,38.2995371,-104.6764997,1482.8,189.8,16,2.5,32.28,25.00,0.00,0,0,-0.03,0.18,-0.01,0.18,22.77,83.8,2082,16,89.00,78.00,1.00,30.00,7.50,16.00,0.00,0.00,194.20,0.00,206.80,213.70,206.80,220.60
7.560,0,38.2995356,-104.6765000,1482.8,189.9,16,2.2,32.45,25.00,0.00,0,0,-0.02,0.19,-0.02,0.19,22.57,83.8,2095,16,89.00,78.00,1.00,30.00,7.50,16.00,0.00,0.00,189.00,0.00,206.80,213.70,206.80,220.60
7.600,0,38.2995340,-104.6765003,1482.9,189.7,16,2.2,32.63,25.00,0.00,0,0,-0.01,0.22,-0.03,0.22,22.11,83.8,2109,16,89.00,78.00,1.00,30.00,7.50,16.00,0.00,0.00,189.00,0.00,206.80,213.70,206.80,220.60
7.640,0,38.2995325,-104.6765006,1482.9,189.0,16,1.8,32.79,25.00,0.00,0,0,-0.00,0.21,-0.02,0.21,20.87,83.8,2126,16,89.00,78.00,1.00,30.00,7.50,16.00,0.00,0.00,183.10,0.00,206.80,213.70,206.80,220.60
7.680,0,38.2995309,-104.6765008,1482.9,188.1,16,1.9,32.97,25.00,0.00,0,0,-0.02,0.17,0.00,0.17,20.65,83.8,2145,16,89.00,78.00,1.00,30.00,7.50,16.00,0.00,0.00,183.10,0.00,206.80,213.70,206.80,220.60
7.720,0,38.2995293,-104.6765009,1482.9,186.3,16,2.4,33.15,25.00,0.00,0,0,-0.04,0.16,-0.01,0.16,20.20,83.8,2161,16,89.00,78.00,1.00,30.00,7.50,16.52,0.00,0.00,176.90,0.00,206.80,213.70,206.80,220.60
7.760,0,38.2995277,-104.6765009,1482.8,184.4,16,2.2,33.33,25.00,0.00,0,0,-0.07,0.15,-0.02,0.17,19.93,83.8,2176,16,89.00,78.00,1.00,30.00,7.50,17.00,0.00,0.00,170.00,0.00,206.80,213.70,206.80,220.60
7.800,0,38.2995261,-104.6765008,1482.8,182.5,16,2.5,33.51,25.00,0.00,0,0,-0.08,0.15,-0.00,0.17,19.48,83.8,2188,17,89.00,78.00,1.00,30.00,7.50,17.00,0.00,0.00,170.00,0.00,206.80,213.70,206.80,220.60
7.840,0,38.2995245,-104.6765008,1482.8,181.4,16,2.5,33.69,25.00,0.00,0,0,-0.06,0.12,0.02,0.13,18.85,83.8,2198,17,89.00,78.00,1.00,30.00,7.50,17.87,0.00,0.00,162.90,0.00,206.80,213.70,206.80,220.60
7.880,0,38.2995229,-104.6765009,1482.8,181.5,16,2.5,33.86,25.00,0.00,0,0,-0.04,0.15,0.03,0.16,18.72,83.8,2207,17,89.00,78.00,1.00,30.00,7.50,19.61,0.00,0.00,162.90,0.00,206.80,213.70,206.80,220.60
7.920,0,38.2995213,-104.6765010,1482.8,181.6,16,2.5,34.04,25.00,0.00,0,0,-0.05,0.21,0.01,0.21,18.14,83.8,2219,17,89.00,78.00,1.00,30.00,7.50,19.51,0.00,0.00,154.70,0.00,206.80,213.70,206.80,220.60
7.960,0,38.2995196,-104.6765011,1482.8,181.8,16,2.5,34.22,25.00,0.00,0,0,-0.08,0.18,-0.03,0.19,17.90,83.8,2233,17,89.00,78.00,1.00,30.00,7.50,19.00,0.00,0.00,149.70,0.00,206.80,213.70,206.80,220.60
8.000,0,38.2995179,-104.6765011,1482.8,181.1,16,2.2,34.41,25.00,0.00,0,0,-0.09,0.15,-0.04,0.18,17.97,83.8,2252,17,89.00,78.00,1.00,30.00,7.50,19.00,0.00,0.00,149.70,0.00,206.80,213.70,206.80,220.60
8.040,0,38.2995160,-104.6765010,1482.8,180.2,17,2.2,34.62,25.00,0.00,0,0,-0.06,0.10,-0.02,0.13,17.30,83.8,2274,17,89.00,78.00,1.00,30.00,7.50,19.31,0.00,0.00,144.90,0.00,206.80,213.70,206.80,220.60
8.080,0,38.2995143,-104.6765009,1482.8,179.2,17,2.4,34.81,25.00,0.00,0,0,-0.02,0.11,0.06,0.13,16.92,83.8,2300,17,89.00,78.00,1.00,30.00,7.50,19.89,0.00,0.00,144.90,0.00,206.80,213.70,206.80,220.60
8.120,0,38.2995126,-104.6765008,1482.8,178.3,17,2.4,35.00,25.00,0.00,0,0,-0.04,0.13,0.08,0.16,17.21,83.8,2319,17,89.00,78.00,1.00,30.00,7.50,20.00,0.00,0.00,138.00,0.00,206.80,213.70,206.80,220.60
8.160,0,38.2995109,-104.6765007,1482.8,178.3,17,2.4,35.19,25.00,0.00,0,0,-0.08,0.19,0.02,0.21,17.13,83.8,2336,17,89.00,78.00,1.00,30.00,7.50,20.00,0.00,0.00,133.00,0.00,206.80,213.70,206.80,220.60
8.200,0,38.2995092,-104.6765007,1482.8,178.3,17,2.1,35.38,25.00,0.00,0,0,-0.09,0.16,0.00,0.19,16.29,83.8,2365,18,89.00,78.00,1.00,30.00,7.50,20.00,0.00,0.00,133.00,0.00,206.80,213.70,206.80,220.60
8.240,0,38.2995075,-104.6765005,1482.8,177.2,17,2.1,35.57,25.00,0.00,0,0,-0.07,0.11,-0.00,0.13,15.63,83.8,2391,18,89.00,78.00,1.00,30.00,7.50,20.00,0.00,0.00,127.10,0.00,206.80,213.70,206.80,220.60
8.280,0,38.2995057,-104.6765002,1482.7,175.9,17,2.0,35.77,25.00,0.00,0,0,-0.11,0.18,-0.02,0.22,15.44,83.8,2414,18,89.00,78.00,1.00,30.00,7.50,20.00,0.00,0.00,127.10,0.00,206.80,213.70,206.80,220.60
8.320,0,38.2995040,-104.6764999,1482.7,175.2,17,2.1,35.97,25.00,0.00,0,0,-0.07,0.09,0.04,0.12,14.70,83.8,2430,18,89.00,78.00,1.00,30.00,7.50,19.31,0.00,0.00,122.00,0.00,206.80,213.70,206.80,220.60
8.360,0,38.2995022,-104.6764996,1482.7,174.5,18,2.3,36.17,25.00,0.00,0,0,-0.10,0.12,0.04,0.16,14.82,83.8,2447,18,89.00,78.00,1.00,30.00,7.50,19.40,0.00,0.00,122.00,0.00,206.80,213.70,206.80,220.60
8.400,0,38.2995004,-104.6764994,1482.8,174.3,18,2.4,36.37,25.00,0.00,0,0,-0.15,0.19,-0.00,0.24,15.10,83.8,2465,18,89.00,78.00,1.00,30.00,7.50,19.92,0.00,0.00,110.30,0.00,206.80,213.70,206.80,220.60
8.440,0,38.2994986,-104.6764992,1482.8,174.3,18,2.4,36.57,25.00,0.00,0,0,-0.12,0.12,-0.01,0.17,12.72,83.8,2483,19,89.00,78.00,1.00,30.00,7.50,19.31,0.00,0.00,110.30,0.00,206.80,213.70,206.80,220.60
8.480,0,38.2994968,-104.6764989,1482.8,174.3,18,2.4,36.77,25.00,0.00,0,0,-0.06,0.05,-0.00,0.08,11.02,83.8,2504,19,89.00,78.00,1.00,30.00,7.50,19.00,0.00,0.00,101.90,0.00,206.80,213.70,206.80,220.60
8.520,0,38.2994949,-104.6764986,1482.8,173.8,18,2.4,36.98,25.00,0.00,0,0,-0.08,0.05,-0.01,0.09,11.52,83.8,2528,19,89.00,78.00,1.00,30.00,7.50,19.00,0.00,0.00,101.90,0.00,206.80,213.70,206.80,220.60
8.560,0,38.2994931,-104.6764982,1482.8,173.1,18,2.5,37.19,25.00,0.00,0,0,-0.15,0.07,-0.01,0.16,12.20,83.8,2561,19,89.00,78.00,1.00,30.00,7.50,18.38,0.00,0.00,90.80,0.00,206.80,213.70,206.80,220.60
8.600,0,38.2994911,-104.6764978,1482.8,172.4,19,2.6,37.41,25.00,0.00,0,0,-0.15,0.05,0.00,0.16,11.81,83.8,2589,19,89.00,78.00,1.00,30.00,7.50,18.00,0.00,0.00,83.00,0.00,206.80,213.70,206.80,220.60
8.640,0,38.2994891,-104.6764974,1482.7,171.5,19,2.6,37.64,25.00,0.00,0,0,-0.13,0.05,0.03,0.14,10.41,83.8,2610,20,89.00,78.00,1.00,30.00,7.50,18.00,0.00,0.00,83.00,0.00,206.80,213.70,206.80,220.60
8.680,0,38.2994871,-104.6764969,1482.7,171.2,19,2.6,37.85,25.00,0.00,0,0,-0.10,0.06,0.04,0.13,9.10,83.8,2625,20,89.00,78.00,1.00,30.00,7.50,18.00,0.00,0.00,76.80,0.00,206.80,213.70,206.80,220.60
8.720,0,38.2994852,-104.6764965,1482.7,170.9,19,2.5,38.08,25.00,0.00,0,0,-0.11,0.07,0.02,0.13,8.73,83.8,2636,20,89.00,78.00,1.00,30.00,7.50,18.00,0.00,0.00,71.40,0.00,206.80,213.70,206.80,220.60
8.760,0,38.2994831,-104.6764960,1482.7,170.8,20,2.1,38.30,25.00,0.00,0,0,-0.14,0.09,-0.01,0.17,9.29,83.8,2645,20,89.00,78.00,1.00,30.00,7.50,18.00,0.00,0.00,71.40,0.00,206.80,213.70,206.80,220.60
8.800,0,38.2994810,-104.6764955,1482.7,170.3,20,2.1,38.54,25.00,0.00,0,0,-0.12,0.07,-0.01,0.14,9.16,83.8,2660,20,89.00,78.00,1.00,30.00,7.50,18.00,0.00,0.00,67.30,0.00,206.80,213.70,206.80,220.60
8.840,0,38.2994791,-104.6764950,1482.7,169.5,20,2.1,38.77,25.00,0.00,0,0,-0.09,0.06,0.01,0.12,7.70,83.8,2678,20,89.00,78.00,1.00,30.00,7.50,18.00,0.00,0.00,62.40,0.00,206.80,213.70,206.80,220.60
8.880,0,38.2994771,-104.6764945,1482.7,169.1,20,2.1,38.99,25.00,0.00,0,0,-0.09,0.08,0.01,0.12,7.82,83.8,2698,21,89.00,78.00,1.00,30.00,7.50,18.00,0.00,0.00,62.40,0.00,206.80,213.70,206.80,220.60
8.920,0,38.2994750,-104.6764940,1482.7,169.1,20,2.1,39.22,25.00,0.00,0,0,-0.08,0.06,0.02,0.10,7.36,83.8,2721,21,89.00,78.00,1.00,30.00,7.50,16.70,0.00,0.00,55.70,0.00,206.80,213.70,206.80,220.60
8.960,0,38.2994729,-104.6764935,1482.7,169.1,21,2.1,39.46,25.00,0.00,0,0,-0.06,0.06,0.03,0.09,6.55,83.8,2745,21,89.00,78.00,1.00,30.00,7.50,15.07,0.00,0.00,48.20,0.00,206.80,213.70,206.80,220.60
9.000,0,38.2994707,-104.6764930,1482.7,169.1,21,2.1,39.70,25.00,0.00,0,0,-0.08,0.05,0.01,0.10,5.79,83.8,2771,21,89.00,78.00,1.00,30.00,7.50,13.10,0.00,0.00,48.20,0.00,206.80,213.70,206.80,220.60
9.040,0,38.2994687,-104.6764925,1482.7,168.9,21,2.1,39.94,25.00,0.00,0,0,-0.10,0.01,-0.02,0.10,4.95,83.8,2784,21,89.00,78.00,1.00,30.00,7.50,12.40,0.00,0.00,41.00,0.00,206.80,213.70,206.80,220.60
9.080,0,38.2994666,-104.6764920,1482.7,168.6,21,2.1,40.17,25.00,0.00,0,0,-0.11,-0.02,-0.03,0.11,4.43,83.8,2793,21,89.00,78.00,1.00,30.00,7.50,11.77,0.00,0.00,33.70,0.00,206.80,213.70,206.80,220.60
9.120,0,38.2994645,-104.6764914,1482.7,168.2,21,2.1,40.42,25.00,0.00,0,0,-0.10,-0.03,-0.02,0.10,3.55,83.8,2795,21,89.00,78.00,1.00,30.00,7.50,11.15,0.00,0.00,33.70,0.00,206.80,213.70,206.80,220.60
9.160,0,38.2994624,-104.6764909,1482.7,168.2,21,2.1,40.65,25.00,0.00,0,0,-0.06,-0.04,0.01,0.08,2.90,83.8,2794,21,89.00,78.00,1.00,30.00,7.50,11.00,0.00,0.00,27.60,0.00,206.80,213.70,206.80,220.60
9.200,0,38.2994602,-104.6764903,1482.7,168.4,21,2.1,40.89,25.00,0.00,0,0,-0.05,-0.02,0.02,0.06,2.90,83.8,2794,22,89.00,78.00,1.00,30.00,7.50,11.14,0.00,0.00,22.40,0.00,206.80,213.70,206.80,220.60
9.240,0,38.2994581,-104.6764899,1482.7,168.8,22,2.1,41.13,25.00,0.00,0,0,-0.04,0.00,0.00,0.05,2.81,83.8,2801,22,89.00,78.00,1.00,30.00,7.50,11.81,0.00,0.00,22.40,0.00,206.80,213.70,206.80,220.60
9.280,0,38.2994559,-104.6764894,1482.7,169.0,22,2.0,41.38,25.00,0.00,0,0,-0.02,0.03,0.01,0.04,2.41,83.8,2815,22,89.00,78.00,1.00,30.00,7.50,12.00,0.00,0.00,18.40,0.00,206.80,213.70,206.80,220.60
9.320,0,38.2994537,-104.6764888,1482.7,168.8,22,2.0,41.63,25.00,0.00,0,0,-0.01,0.01,0.01,0.02,2.08,83.8,2832,22,89.00,78.00,1.00,30.00,7.50,12.00,0.00,0.00,15.60,0.00,206.80,213.70,206.80,220.60
9.360,0,38.2994515,-104.6764883,1482.7,168.4,22,2.0,41.88,25.00,0.00,0,0,-0.01,0.04,-0.00,0.04,2.17,83.8,2851,22,89.00,78.00,1.00,30.00,7.50,12.00,0.00,0.00,15.60,0.00,206.80,213.70,206.80,220.60
9.400,0,38.2994494,-104.6764876,1482.7,168.1,22,2.1,42.12,25.00,0.00,0,0,-0.03,0.06,-0.01,0.07,1.80,83.8,2861,22,89.00,78.00,1.00,30.00,7.50,11.51,0.00,0.00,13.50,0.00,206.80,213.70,206.80,220.60
9.440,0,38.2994472,-104.6764871,1482.7,167.9,22,2.1,42.37,25.00,0.00,0,0,-0.03,0.04,-0.03,0.06,0.93,83.8,2870,22,89.00,78.00,1.00,30.00,7.50,11.00,0.00,0.00,11.70,0.00,206.80,213.70,206.80,220.60
9.480,0,38.2994450,-104.6764864,1482.7,167.6,22,2.1,42.62,25.00,0.00,0,0,-0.00,-0.02,0.02,0.03,0.70,83.8,2872,22,89.00,78.00,1.00,30.00,7.50,11.00,0.00,0.00,11.70,0.00,206.80,213.70,206.80,220.60
9.520,0,38.2994428,-104.6764858,1482.7,167.6,22,2.1,42.87,25.00,0.00,0,0,-0.00,0.01,0.02,0.03,1.38,83.8,2873,22,89.00,78.00,1.00,30.00,7.50,11.18,0.00,0.00,10.20,0.00,206.80,213.70,206.80,220.60
9.560,0,38.2994405,-104.6764852,1482.7,167.5,22,2.1,43.13,25.00,0.00,0,0,-0.03,0.00,-0.01,0.03,1.26,83.8,2873,22,89.00,78.00,1.00,30.00,7.50,11.84,0.00,0.00,10.20,0.00,206.80,213.70,206.80,220.60
9.600,0,38.2994383,-104.6764846,1482.7,167.8,22,2.1,43.38,25.00,0.00,0,0,-0.03,0.00,0.01,0.03,1.12,83.8,2875,22,89.00,78.00,1.00,30.00,7.50,12.00,0.00,0.00,9.30,0.00,206.80,213.70,206.80,220.60
9.640,0,38.2994362,-104.6764840,1482.7,167.9,22,2.1,43.62,25.00,0.00,0,0,-0.01,-0.01,0.01,0.02,1.32,83.8,2879,22,89.00,78.00,1.00,30.00,7.50,12.26,0.00,0.00,9.10,0.00,206.80,213.70,206.80,220.60
9.680,0,38.2994339,-104.6764834,1482.7,168.0,22,2.1,43.88,25.00,0.00,0,0,-0.01,0.02,0.01,0.03,1.53,83.8,2884,22,89.00,78.00,1.00,30.00,7.50,13.55,0.00,0.00,9.10,0.00,206.80,213.70,206.80,220.60
9.720,0,38.2994317,-104.6764828,1482.6,167.9,23,2.1,44.13,25.00,0.00,0,0,-0.03,0.03,-0.01,0.05,1.79,83.8,2891,22,89.00,78.00,1.00,30.00,7.50,14.00,0.00,0.00,9.00,0.00,206.80,213.70,206.80,220.60
9.760,0,38.2994295,-104.6764822,1482.6,167.8,22,2.1,44.38,25.00,0.00,0,0,-0.04,0.04,-0.03,0.06,1.66,83.8,2899,22,89.00,78.00,1.00,30.00,7.50,14.00,0.00,0.00,9.00,0.00,206.80,213.70,206.80,220.60
9.800,0,38.2994273,-104.6764817,1482.6,167.7,22,2.1,44.63,25.00,0.00,0,0,0.02,-0.02,0.03,0.07,0.20,83.8,2909,22,89.00,78.00,1.00,30.00,7.50,14.57,0.00,0.00,9.00,0.00,206.80,213.70,206.80,220.60
9.840,0,38.2994251,-104.6764811,1482.6,167.8,22,2.1,44.88,25.00,0.00,0,0,-0.01,0.00,-0.01,0.05,1.86,83.8,2920,22,89.00,78.00,1.00,30.00,7.50,15.00,0.00,0.00,9.00,0.00,206.80,213.70,206.80,220.60
9.880,0,38.2994229,-104.6764805,1482.6,167.9,22,2.1,45.13,25.00,0.00,0,0,-0.04,0.07,-0.01,0.09,2.36,83.8,2931,22,89.00,78.00,1.00,30.00,7.50,15.00,0.00,0.00,9.00,0.00,206.80,213.70,206.80,220.60
9.920,0,38.2994207,-104.6764799,1482.6,168.0,23,2.1,45.37,25.00,0.00,0,0,-0.02,0.06,0.02,0.07,1.14,83.8,2938,23,89.00,78.00,1.00,30.00,7.50,14.46,0.00,0.00,8.90,0.00,206.80,213.70,206.80,220.60
9.960,0,38.2994185,-104.6764794,1482.6,168.2,23,2.1,45.62,25.00,0.00,0,0,-0.01,0.03,0.03,0.04,0.57,83.8,2943,23,89.00,78.00,1.00,30.00,7.50,14.21,0.00,0.00,8.70,0.00,206.80,213.70,206.80,220.60
10.000,0,38.2994163,-104.6764788,1482.6,168.0,23,2.1,45.87,25.00,0.00,0,0,-0.04,0.03,-0.00,0.06,1.25,83.8,2947,23,89.00,78.00,1.00,30.00,7.50,14.87,0.00,0.00,8.70,0.00,206.80,213.70,206.80,220.60
10.040,0,38.2994140,-104.6764782,1482.6,167.7,23,2.1,46.13,25.00,0.00,0,0,-0.07,0.02,-0.02,0.08,1.24,83.8,2949,23,89.00,78.00,1.00,30.00,7.50,14.50,0.00,0.00,8.70,0.00,206.80,213.70,206.80,220.60
10.080,0,38.2994118,-104.6764775,1482.6,167.1,23,2.1,46.39,25.00,0.00,0,0,-0.03,0.00,0.00,0.05,1.12,83.8,2951,23,89.00,78.00,1.00,30.00,7.50,13.87,0.00,0.00,8.70,0.00,206.80,213.70,206.80,220.60
10.120,0,38.2994095,-104.6764769,1482.6,167.0,23,2.1,46.65,25.00,0.00,0,0,0.00,0.00,0.03,0.04,0.58,83.8,2956,23,89.00,78.00,1.00,30.00,7.50,13.24,0.00,0.00,8.70,0.00,206.80,213.70,206.80,220.60
10.160,0,38.2994073,-104.6764763,1482.6,167.1,23,2.1,46.90,25.00,0.00,0,0,-0.01,0.02,0.02,0.04,1.32,83.8,2964,23,89.00,78.00,1.00,30.00,7.50,13.40,0.00,0.00,8.70,0.00,206.80,213.70,206.80,220.60
10.200,0,38.2994050,-104.6764757,1482.6,167.2,23,2.1,47.16,25.00,0.00,0,0,-0.02,-0.01,0.02,0.04,1.09,83.8,2975,23,89.00,78.00,1.00,30.00,7.50,14.00,0.00,0.00,8.00,0.00,206.80,213.70,206.80,220.60
10.240,0,38.2994028,-104.6764750,1482.6,167.1,23,2.1,47.41,25.00,0.00,0,0,-0.01,-0.01,0.02,0.04,1.33,83.8,2990,23,89.00,78.00,1.00,30.00,7.50,14.00,0.00,0.00,8.00,0.00,206.80,213.70,206.80,220.60
10.280,0,38.2994005,-104.6764744,1482.6,167.1,23,2.1,47.67,25.00,0.00,0,0,-0.03,0.03,-0.00,0.04,0.93,83.8,3003,23,89.00,78.00,1.00,30.00,7.50,14.00,0.00,0.00,5.50,0.00,206.80,213.70,206.80,220.60
10.320,0,38.2993982,-104.6764738,1482.6,167.4,23,2.1,47.93,25.00,0.00,0,0,-0.04,0.03,-0.01,0.05,0.39,83.8,3013,23,89.00,78.00,1.00,30.00,7.50,14.00,0.00,0.00,5.50,0.00,206.80,213.70,206.80,220.60
10.360,0,38.2993960,-104.6764732,1482.6,167.5,23,2.1,48.18,25.00,0.00,0,0,-0.04,0.01,-0.00,0.04,0.19,83.8,3020,23,89.00,78.00,1.00,30.00,7.50,13.48,0.00,0.00,3.00,0.00,206.80,213.70,206.80,220.60
10.400,0,38.2993937,-104.6764725,1482.6,167.3,23,2.1,48.44,25.00,0.00,0,0,-0.02,-0.00,0.02,0.03,-0.00,83.8,3025,23,89.00,78.00,1.00,30.00,7.50,13.18,0.00,0.00,0.90,0.00,206.80,213.70,206.80,220.60
10.440,0,38.2993914,-104.6764719,1482.6,167.2,23,2.1,48.70,25.00,0.00,0,0,-0.02,-0.01,0.02,0.03,-0.20,83.8,3027,23,89.00,78.00,1.00,30.00,7.50,13.85,0.00,0.00,0.90,0.00,206.80,213.70,206.80,220.60
10.480,0,38.2993891,-104.6764713,1482.6,167.1,23,2.1,48.96,25.00,0.00,0,0,-0.04,-0.03,0.00,0.06,0.14,83.8,3033,23,89.00,78.00,1.00,30.00,7.50,13.47,0.00,0.00,0.00,0.00,206.80,213.70,206.80,220.60
10.520,0,38.2993868,-104.6764707,1482.5,167.3,23,2.1,49.23,25.00,0.00,0,0,-0.05,0.02,-0.00,0.05,0.24,83.8,3040,23,89.00,78.00,1.00,30.00,7.50,13.00,0.00,0.00,0.00,0.00,206.80,213.70,206.80,220.60
10.560,0,38.2993845,-104.6764701,1482.5,167.4,23,2.1,49.49,25.00,0.00,0,0,-0.02,0.01,0.03,0.04,-0.10,83.8,3047,23,89.00,78.00,1.00,30.00,7.50,13.00,0.00,0.00,0.00,0.00,206.80,213.70,206.80,220.60
10.600,0,38.2993822,-104.6764695,1482.5,167.3,24,2.1,49.75,25.00,0.00,0,0,-0.02,0.02,0.04,0.05,0.47,83.8,3053,23,89.00,78.00,1.00,30.00,7.50,13.00,0.00,0.00,0.20,0.00,206.80,213.70,206.80,220.60
10.640,0,38.2993799,-104.6764688,1482.5,167.4,24,2.1,50.01,25.00,0.00,0,0,-0.03,0.05,0.03,0.06,0.38,83.8,3060,24,89.00,78.00,1.00,30.00,7.50,13.00,0.00,0.00,1.20,0.00,206.80,213.70,206.80,220.60
10.680,0,38.2993776,-104.6764682,1482.5,167.5,24,2.0,50.27,25.00,0.00,0,0,-0.02,0.03,0.02,0.04,0.13,83.8,3067,24,89.00,78.00,1.00,30.00,7.50,13.00,0.00,0.00,1.20,0.00,206.80,213.70,206.80,220.60
10.720,0,38.2993752,-104.6764676,1482.5,167.4,24,2.0,50.54,25.00,0.00,0,0,-0.02,0.01,-0.01,0.03,0.91,83.8,3075,24,89.00,78.00,1.00,30.00,7.50,13.00,0.00,0.00,2.30,0.00,206.80,213.70,206.80,220.60
10.760,0,38.2993729,-104.6764669,1482.5,167.3,24,2.0,50.81,25.00,0.00,0,0,-0.06,0.04,-0.09,0.12,1.14,83.8,3083,24,89.00,78.00,1.00,30.00,7.50,13.00,0.00,0.00,3.20,0.00,206.80,213.70,206.80,220.60
10.800,0,38.2993705,-104.6764662,1482.5,166.9,24,2.0,51.08,25.00,0.00,0,0,-0.01,-0.00,0.01,0.02,0.04,83.8,3091,24,89.00,78.00,1.00,30.00,7.50,13.00,0.00,0.00,3.20,0.00,206.80,213.70,206.80,220.60
10.840,0,38.2993682,-104.6764655,1482.5,166.8,24,2.0,51.34,25.00,0.00,0,0,0.00,0.01,0.02,0.02,0.35,83.8,3097,24,89.00,78.00,1.00,30.00,7.50,13.00,0.00,0.00,3.80,0.00,206.80,213.70,206.80,220.60
10.880,0,38.2993658,-104.6764649,1482.5,167.0,24,2.0,51.61,25.00,0.00,0,0,-0.05,0.05,0.00,0.07,1.27,83.8,3102,24,89.00,78.00,1.00,30.00,7.50,13.00,0.00,0.00,3.80,0.00,206.80,213.70,206.80,220.60
10.920,0,38.2993635,-104.6764642,1482.5,167.1,24,2.0,51.87,25.00,0.00,0,0,-0.08,0.01,-0.03,0.09,1.61,83.8,3105,24,89.00,78.00,1.00,30.00,7.50,13.00,0.00,0.00,3.80,0.00,206.80,213.70,206.80,220.60
10.960,0,38.2993611,-104.6764636,1482.5,167.2,24,2.0,52.15,25.00,0.00,0,0,-0.01,-0.02,0.02,0.04,-0.22,83.8,3109,24,89.00,78.00,1.00,30.00,7.50,13.00,0.00,0.00,3.60,0.00,206.80,213.70,206.80,220.60
11.000,0,38.2993587,-104.6764629,1482.5,167.0,24,2.0,52.42,25.00,0.00,0,0,0.03,-0.01,0.06,0.06,-0.59,83.8,3114,24,89.00,78.00,1.00,30.00,7.50,13.00,0.00,0.00,3.30,0.00,206.80,213.70,206.80,220.60
11.040,0,38.2993563,-104.6764622,1482.5,166.9,24,2.0,52.69,25.00,0.00,0,0,-0.03,0.01,0.02,0.05,-0.20,83.8,3119,24,89.00,78.00,1.00,30.00,7.50,13.00,0.00,0.00,3.30,0.00,206.80,213.70,206.80,220.60
11.080,0,38.2993540,-104.6764615,1482.5,166.8,24,2.0,52.96,25.00,0.00,0,0,-0.04,-0.01,0.00,0.05,0.29,83.8,3125,24,89.00,78.00,1.00,30.00,7.50,13.00,0.00,0.00,0.60,0.00,206.80,213.70,206.80,220.60
11.120,0,38.2993516,-104.6764609,1482.5,166.9,24,2.0,53.23,25.00,0.00,0,0,0.00,-0.01,0.00,0.03,-0.07,83.8,3133,24,89.00,78.00,1.00,30.00,7.50,13.00,0.00,0.00,0.60,0.00,206.80,213.70,206.80,220.60
11.160,0,38.2993492,-104.6764602,1482.5,166.9,24,2.0,53.50,25.00,0.00,0,0,0.01,-0.02,0.00,0.02,-1.25,83.8,3141,24,89.00,78.00,1.00,30.00,7.50,13.00,0.00,0.00,-1.80,0.00,206.80,213.70,206.80,220.60
11.200,0,38.2993468,-104.6764595,1482.5,166.9,24,2.0,53.77,25.00,0.00,0,0,-0.03,-0.01,-0.02,0.04,-0.35,83.8,3148,24,89.00,78.00,1.00,30.00,7.50,13.00,0.00,0.00,-3.60,0.00,206.80,213.70,206.80,220.60
11.240,0,38.2993444,-104.6764588,1482.5,167.0,24,2.0,54.05,25.00,0.00,0,0,-0.02,-0.04,-0.01,0.05,-0.70,83.8,3157,24,89.00,78.00,1.00,30.00,7.50,13.00,0.00,0.00,-3.60,0.00,206.80,213.70,206.80,220.60
11.280,0,38.2993420,-104.6764582,1482.4,167.1,24,2.0,54.32,25.00,0.00,0,0,-0.00,-0.03,0.02,0.04,-0.41,83.8,3163,24,89.00,78.00,1.00,30.00,7.50,13.00,0.00,0.00,-4.30,0.00,206.80,213.70,206.80,220.60
11.320,0,38.2993396,-104.6764575,1482.4,167.2,24,2.0,54.59,25.00,0.00,0,0,-0.01,-0.01,0.02,0.02,-0.53,83.8,3168,24,89.00,78.00,1.00,30.00,7.50,13.00,0.00,0.00,-4.30,0.00,206.80,213.70,206.80,220.60
11.360,0,38.2993372,-104.6764568,1482.4,167.3,25,2.0,54.87,25.00,0.00,0,0,-0.03,-0.01,0.01,0.03,-0.53,83.8,3173,24,89.00,78.00,1.00,30.00,7.50,13.00,0.00,0.00,-4.30,0.00,206.80,213.70,206.80,220.60
11.400,0,38.2993348,-104.6764562,1482.4,167.2,25,2.0,55.14,25.00,0.00,0,0,-0.03,-0.00,0.01,0.04,-0.36,83.8,3180,24,89.00,78.00,1.00,30.00,7.50,13.00,0.00,0.00,-4.30,0.00,206.80,213.70,206.80,220.60
11.440,0,38.2993324,-104.6764555,1482.4,167.2,25,2.0,55.41,25.00,0.00,0,0,-0.03,0.01,0.01,0.03,-0.03,83.8,3187,25,89.00,78.00,1.00,30.00,7.50,13.00,0.00,0.00,-4.10,0.00,206.80,213.70,206.80,220.60
11.480,0,38.2993300,-104.6764548,1482.4,167.2,25,2.0,55.68,25.00,0.00,0,0,-0.05,0.02,-0.01,0.06,0.36,83.8,3191,25,89.00,78.00,1.00,30.00,7.50,13.00,0.00,0.00,-4.10,0.00,206.80,213.70,206.80,220.60
11.520,0,38.2993276,-104.6764542,1482.4,167.4,25,2.0,55.96,25.00,0.00,0,0,-0.02,0.02,0.01,0.08,-0.48,83.8,3195,25,89.00,78.00,1.00,30.00,7.50,13.00,0.00,0.00,-4.00,0.00,206.80,213.70,206.80,220.60
11.560,0,38.2993252,-104.6764535,1482.4,167.3,25,2.0,56.23,25.00,0.00,0,0,0.03,-0.02,0.05,0.06,-1.10,83.8,3198,25,89.00,78.00,1.00,30.00,7.50,13.00,0.00,0.00,-4.00,0.00,206.80,213.70,206.80,220.60
11.600,0,38.2993227,-104.6764528,1482.4,167.3,25,2.0,56.51,25.00,0.00,0,0,0.00,-0.01,0.02,0.04,-0.56,83.8,3205,25,89.00,78.00,1.00,30.00,7.50,13.00,0.00,0.00,-4.00,0.00,206.80,213.70,206.80,220.60
11.640,0,38.2993203,-104.6764522,1482.4,167.2,25,2.0,56.78,25.00,0.00,0,0,-0.04,-0.02,-0.02,0.05,0.20,83.8,3212,25,89.00,78.00,1.00,30.00,7.50,13.00,0.00,0.00,-4.00,0.00,206.80,213.70,206.80,220.60
11.680,0,38.2993179,-104.6764515,1482.4,167.2,25,2.0,57.06,25.00,0.00,0,0,-0.06,0.01,-0.04,0.07,0.36,83.8,3222,25,89.00,78.00,1.00,30.00,7.50,13.00,0.00,0.00,-4.00,0.00,206.80,213.70,206.80,220.60
11.720,0,38.2993155,-104.6764508,1482.4,167.1,25,2.0,57.33,25.00,0.00,0,0,-0.03,0.02,-0.02,0.04,-0.36,83.8,3227,25,89.00,78.00,1.00,30.00,7.50,13.00,0.00,0.00,-4.00,0.00,206.80,213.70,206.80,220.60
11.760,0,38.2993131,-104.6764501,1482.4,167.2,25,2.0,57.61,25.00,0.00,0,0,-0.00,-0.00,0.01,0.01,-1.17,83.8,3231,25,89.00,78.00,1.00,30.00,7.50,13.00,0.00,0.00,-3.80,0.00,206.80,213.70,206.80,220.60
11.800,0,38.2993106,-104.6764495,1482.4,167.4,25,2.0,57.89,25.00,0.00,0,0,-0.01,-0.03,0.02,0.04,-0.70,83.8,3234,25,89.00,78.00,1.00,30.00,7.50,13.00,0.00,0.00,-3.80,0.00,206.80,213.70,206.80,220.60
11.840,0,38.2993081,-104.6764488,1482.4,167.5,25,2.0,58.17,25.00,0.00,0,0,-0.02,-0.02,0.02,0.04,0.29,83.8,3238,25,89.00,78.00,1.00,30.00,7.50,13.40,0.00,0.00,-3.80,0.00,206.80,213.70,206.80,220.60
11.880,0,38.2993056,-104.6764481,1482.4,167.4,25,2.0,58.46,25.00,0.00,0,0,-0.01,0.01,0.03,0.04,-0.03,83.8,3244,25,89.00,78.00,1.00,30.00,7.50,13.95,0.00,0.00,-3.80,0.00,206.80,213.70,206.80,220.60
11.920,0,38.2993032,-104.6764474,1482.4,167.4,25,2.0,58.73,25.00,0.00,0,0,-0.01,-0.01,0.05,0.05,-0.39,83.8,3252,25,89.00,78.00,1.00,30.00,7.50,13.30,0.00,0.00,-3.80,0.00,206.80,213.70,206.80,220.60
11.960,0,38.2993007,-104.6764467,1482.4,167.2,25,2.0,59.01,25.00,0.00,0,0,-0.02,-0.03,0.00,0.03,-0.50,83.8,3262,25,89.00,78.00,1.00,30.00,7.50,13.00,0.00,0.00,-3.60,0.00,206.80,213.70,206.80,220.60
12.000,0,38.2992983,-104.6764461,1482.4,167.2,25,2.0,59.29,25.00,0.00,0,0,-0.04,-0.03,-0.01,0.05,-0.14,83.8,3272,25,89.00,78.00,1.00,30.00,7.50,13.00,0.00,0.00,-3.60,0.00,206.80,213.70,206.80,220.60
12.040,0,38.2992958,-104.6764454,1482.4,167.5,25,2.0,59.57,25.00,0.00,0,0,-0.03,-0.01,-0.03,0.04,0.03,83.8,3278,25,89.00,78.00,1.00,30.00,7.50,12.50,0.00,0.00,-3.40,0.00,206.80,213.70,206.80,220.60
12.080,0,38.2992933,-104.6764447,1482.4,167.5,25,2.0,59.85,25.00,0.00,0,0,-0.01,-0.01,-0.00,0.01,-0.36,83.8,3282,25,89.00,78.00,1.00,30.00,7.50,12.08,0.00,0.00,-3.40,0.00,206.80,213.70,206.80,220.60
12.120,0,38.2992908,-104.6764441,1482.4,167.6,25,2.0,60.14,25.00,0.00,0,0,0.01,0.01,0.01,0.02,-0.69,83.8,3283,25,89.00,78.00,1.00,30.00,7.50,12.69,0.00,0.00,-3.40,0.00,206.80,213.70,206.80,220.60
12.160,0,38.2992883,-104.6764434,1482.4,167.6,25,2.0,60.42,25.00,0.00,0,0,-0.01,0.01,0.01,0.02,-0.58,83.8,3287,25,89.00,78.00,1.00,30.00,7.50,13.00,0.00,0.00,-3.40,0.00,206.80,213.70,206.80,220.60
12.200,0,38.2992858,-104.6764427,1482.4,167.7,26,2.0,60.71,25.00,0.00,0,0,-0.03,-0.02,0.01,0.04,-0.37,83.8,3295,25,89.00,78.03,1.00,30.00,7.50,12.97,0.00,0.00,-3.40,0.00,206.80,213.70,206.80,220.60
12.240,0,38.2992833,-104.6764420,1482.4,167.6,26,2.0,60.99,25.00,0.00,0,0,-0.04,-0.02,0.01,0.05,-0.02,83.8,3301,25,89.00,78.72,1.00,30.00,7.50,12.28,0.00,0.00,-3.40,0.00,206.80,213.70,206.80,220.60
12.280,0,38.2992808,-104.6764414,1482.4,167.5,25,2.0,61.27,25.00,0.00,0,0,-0.03,-0.01,0.01,0.03,-0.39,83.8,3306,25,89.00,79.00,1.00,30.00,7.50,12.00,0.00,0.00,-3.40,0.00,206.80,213.70,206.80,220.60
12.320,0,38.2992783,-104.6764407,1482.4,167.3,26,2.0,61.56,25.00,0.00,0,0,-0.02,-0.02,0.01,0.03,-0.50,83.8,3311,25,89.00,79.00,1.00,30.00,7.50,12.00,0.00,0.00,-3.40,0.00,206.80,213.70,206.80,220.60
12.360,0,38.2992758,-104.6764400,1482.4,167.4,26,2.0,61.84,25.00,0.00,0,0,-0.00,-0.03,0.03,0.04,-0.59,83.8,3313,26,89.00,79.00,1.00,30.00,7.50,12.00,0.00,0.00,-3.40,0.00,206.80,213.70,206.80,220.60
12.400,0,38.2992733,-104.6764393,1482.4,167.6,26,2.0,62.13,25.00,0.00,0,0,0.00,-0.01,0.03,0.03,-0.07,83.8,3318,26,89.00,79.00,1.00,30.00,7.50,12.51,0.00,0.00,-3.40,0.00,206.80,213.70,206.80,220.60
12.440,0,38.2992707,-104.6764386,1482.3,167.6,26,2.0,62.42,25.00,0.00,0,0,-0.01,0.01,0.00,0.02,-0.09,83.8,3323,26,89.00,79.00,1.00,30.00,7.50,12.81,0.00,0.00,-3.40,0.00,206.80,213.70,206.80,220.60
12.480,0,38.2992681,-104.6764379,1482.3,167.7,26,2.0,62.71,25.00,0.00,0,0,-0.01,-0.01,0.00,0.02,-0.70,83.8,3331,26,89.00,79.00,1.00,30.00,7.50,12.14,0.00,0.00,-3.40,0.00,206.80,213.70,206.80,220.60
12.520,0,38.2992656,-104.6764373,1482.3,167.9,26,2.0,63.00,25.00,0.00,0,0,-0.00,-0.01,0.01,0.01,-0.64,83.8,3338,26,89.00,79.00,1.00,30.00,7.50,12.00,0.00,0.00,-3.40,0.00,206.80,213.70,206.80,220.60
12.560,0,38.2992631,-104.6764366,1482.4,168.0,26,2.0,63.28,25.00,0.00,0,0,-0.01,-0.01,0.01,0.02,-0.29,83.8,3343,26,89.00,79.00,1.00,30.00,7.50,12.24,0.00,0.00,-3.40,0.00,206.80,213.70,206.80,220.60
12.600,0,38.2992606,-104.6764359,1482.3,167.7,26,2.0,63.57,25.00,0.00,0,0,-0.01,-0.03,0.01,0.04,-0.49,83.8,3346,26,89.00,79.00,1.00,30.00,7.50,12.93,0.00,0.00,-3.40,0.00,206.80,213.70,206.80,220.60
12.640,0,38.2992580,-104.6764352,1482.3,167.6,26,2.0,63.86,25.00,0.00,0,0,0.00,-0.03,0.02,0.04,-0.46,83.8,3348,26,89.00,79.00,1.00,30.00,7.50,13.00,0.00,0.00,-3.40,0.00,206.80,213.70,206.80,220.60
12.680,0,38.2992555,-104.6764344,1482.3,167.5,26,2.0,64.15,25.00,0.00,0,0,-0.01,-0.01,0.01,0.03,-0.26,83.8,3352,26,89.00,79.00,1.00,30.00,7.50,13.00,0.00,0.00,-3.40,0.00,206.80,213.70,206.80,220.60
12.720,0,38.2992529,-104.6764338,1482.3,167.5,26,2.0,64.44,25.00,0.00,0,0,-0.03,-0.01,-0.01,0.03,-0.01,83.8,3357,26,89.00,79.00,1.00,30.00,7.50,12.95,0.00,0.00,-3.40,0.00,206.80,213.70,206.80,220.60
12.760,0,38.2992504,-104.6764331,1482.3,167.6,26,2.0,64.73,25.00,0.00,0,0,-0.03,0.01,-0.01,0.03,-0.02,83.8,3364,26,89.00,79.00,1.00,30.00,7.50,12.31,0.00,0.00,-3.40,0.00,206.80,213.70,206.80,220.60
12.800,0,38.2992478,-104.6764324,1482.3,167.9,26,2.0,65.02,25.00,0.00,0,0,-0.03,0.01,-0.00,0.03,-0.39,83.8,3369,26,89.00,79.00,1.00,30.00,7.50,12.31,0.00,0.00,-3.40,0.00,206.80,213.70,206.80,220.60
12.840,0,38.2992452,-104.6764318,1482.3,168.2,26,2.0,65.31,25.00,0.00,0,0,-0.03,-0.00,-0.01,0.04,-0.11,83.8,3372,26,89.00,79.00,1.00,30.00,7.50,12.90,0.00,0.00,-3.40,0.00,206.80,213.70,206.80,220.60
12.880,0,38.2992427,-104.6764311,1482.3,168.0,26,2.0,65.60,25.00,0.00,0,0,-0.02,-0.01,-0.00,0.04,-0.37,83.8,3375,26,89.00,79.00,1.00,30.00,7.50,13.00,0.00,0.00,-3.40,0.00,206.80,213.70,206.80,220.60
12.920,0,38.2992401,-104.6764304,1482.3,167.7,26,2.0,65.89,25.00,0.00,0,0,0.01,-0.01,0.04,0.04,-1.05,83.8,3377,26,89.00,79.00,1.00,30.00,7.50,13.00,0.00,0.00,-3.40,0.00,206.80,213.70,206.80,220.60
12.960,0,38.2992375,-104.6764296,1482.3,167.6,26,2.0,66.19,25.00,0.00,0,0,-0.01,-0.00,0.01,0.03,-0.62,83.8,3382,26,89.00,79.00,1.00,30.00,7.50,13.00,0.00,0.00,-3.40,0.00,206.80,213.70,206.80,220.60
13.000,0,38.2992349,-104.6764290,1482.3,167.9,26,2.0,66.48,25.00,0.00,0,0,-0.04,0.00,-0.02,0.05,0.25,83.8,3388,26,89.00,79.00,1.00,30.00,7.50,12.56,0.00,0.00,-3.40,0.00,206.80,213.70,206.80,220.60
13.040,0,38.2992323,-104.6764283,1482.3,168.0,26,2.0,66.78,25.00,0.00,0,0,-0.04,0.00,-0.01,0.05,0.30,83.8,3394,26,89.00,79.00,1.00,30.00,7.50,12.00,0.00,0.00,-3.40,0.00,206.80,213.70,206.80,220.60
13.080,0,38.2992297,-104.6764276,1482.3,168.1,26,2.0,67.07,25.00,0.00,0,0,0.00,-0.01,0.01,0.02,-0.04,83.8,3396,26,89.00,79.00,1.00,30.00,7.50,12.00,0.00,0.00,-3.40,0.00,206.80,213.70,206.80,220.60
13.120,0,38.2992271,-104.6764269,1482.3,168.1,26,2.0,67.37,25.00,0.00,0,0,0.00,0.01,0.01,0.02,-0.24,83.8,3399,26,89.00,79.00,1.00,30.00,7.50,12.19,0.00,0.00,-3.40,0.00,206.80,213.70,206.80,220.60
13.160,0,38.2992245,-104.6764262,1482.3,167.7,26,2.0,67.66,25.00,0.00,0,0,0.03,-0.04,0.03,0.06,-1.22,83.8,3404,26,89.00,79.00,1.00,30.00,7.50,12.79,0.00,0.00,-3.40,0.00,206.80,213.70,206.80,220.60
13.200,0,38.2992219,-104.6764255,1482.3,167.6,26,2.0,67.96,25.00,0.00,0,0,0.01,-0.03,0.02,0.04,-0.46,83.8,3411,26,89.00,79.00,1.00,30.00,7.50,13.00,0.00,0.00,-3.40,0.00,206.80,213.70,206.80,220.60
13.240,0,38.2992193,-104.6764248,1482.3,167.9,26,2.0,68.25,25.00,0.00,0,0,-0.02,0.01,-0.03,0.04,0.37,83.8,3418,26,89.00,79.00,1.00,30.00,7.50,13.00,0.00,0.00,-3.40,0.00,206.80,213.70,206.80,220.60
13.280,0,38.2992167,-104.6764242,1482.3,168.2,26,2.0,68.55,25.00,0.00,0,0,-0.01,0.03,0.00,0.03,-0.18,83.8,3426,26,89.00,79.00,1.00,30.00,7.50,12.43,0.00,0.00,-3.40,0.00,206.80,213.70,206.80,220.60
13.320,0,38.2992141,-104.6764236,1482.3,168.3,27,2.0,68.84,25.00,0.00,0,0,0.01,0.02,0.02,0.03,-0.55,83.8,3434,26,89.00,79.00,1.00,30.00,7.50,12.15,0.00,0.00,-3.30,0.00,206.80,213.70,206.80,220.60
13.360,0,38.2992115,-104.6764228,1482.3,168.0,27,2.0,69.14,25.00,0.00,0,0,0.02,0.02,0.05,0.05,-0.75,83.8,3436,26,89.00,79.00,1.00,30.00,7.50,12.77,0.00,0.00,-3.30,0.00,206.80,213.70,206.80,220.60
13.400,0,38.2992089,-104.6764221,1482.3,167.5,27,2.0,69.43,25.00,0.00,0,0,-0.01,-0.00,-0.00,0.02,-0.37,83.8,3439,26,89.00,79.00,1.00,30.00,7.50,13.00,0.00,0.00,-3.30,0.00,206.80,213.70,206.80,220.60
13.440,0,38.2992063,-104.6764214,1482.3,167.7,27,2.0,69.73,25.00,0.00,0,0,-0.03,-0.01,-0.02,0.03,-0.03,83.8,3443,27,89.00,79.00,1.00,30.00,7.50,12.95,0.00,0.00,-3.30,0.00,206.80,213.70,206.80,220.60
13.480,0,38.2992036,-104.6764207,1482.3,168.0,27,2.0,70.03,25.00,0.00,0,0,-0.03,-0.00,-0.02,0.04,-0.19,83.8,3447,27,89.00,79.00,1.00,30.00,7.50,12.26,0.00,0.00,-3.30,0.00,206.80,213.70,206.80,220.60
13.520,0,38.2992010,-104.6764200,1482.3,168.1,27,2.0,70.33,25.00,0.00,0,0,-0.03,0.02,-0.01,0.04,0.10,83.8,3452,27,89.00,79.00,1.00,30.00,7.50,12.00,0.00,0.00,-3.30,0.00,206.80,213.70,206.80,220.60
13.560,0,38.2991984,-104.6764193,1482.3,168.0,27,2.0,70.62,25.00,0.00,0,0,-0.02,-0.00,0.01,0.03,0.00,83.8,3457,27,89.00,79.00,1.00,30.00,7.50,12.00,0.00,0.00,-3.30,0.00,206.80,213.70,206.80,220.60
13.600,0,38.2991958,-104.6764186,1482.3,168.0,27,2.0,70.92,25.00,0.00,0,0,-0.01,-0.01,0.02,0.03,0.00,83.8,3459,27,89.00,79.00,1.00,30.00,7.50,12.00,0.00,0.00,-3.30,0.00,206.80,213.70,206.80,220.60
13.640,0,38.2991931,-104.6764179,1482.3,168.1,27,2.0,71.22,25.00,0.00,0,0,-0.01,-0.01,0.01,0.02,-0.70,83.8,3461,27,89.00,79.00,1.00,30.00,7.50,12.00,0.00,0.00,-3.30,0.00,206.80,213.70,206.80,220.60
13.680,0,38.2991905,-104.6764172,1482.3,168.0,27,2.0,71.52,25.00,0.00,0,0,-0.02,0.01,0.02,0.03,-0.19,83.8,3463,27,89.00,79.00,1.00,30.00,7.50,12.00,0.00,0.00,-3.30,0.00,206.80,213.70,206.80,220.60
13.720,0,38.2991878,-104.6764165,1482.3,167.8,27,2.0,71.82,25.00,0.00,0,0,-0.01,-0.02,0.04,0.06,-0.70,83.8,3465,27,89.00,79.00,1.00,30.00,7.50,12.00,0.00,0.00,-3.30,0.00,206.80,213.70,206.80,220.60
13.760,0,38.2991852,-104.6764159,1482.3,168.0,27,2.0,72.12,25.00,0.00,0,0,0.01,-0.03,0.04,0.05,0.09,83.8,3472,27,89.00,79.00,1.00,30.00,7.50,12.44,0.00,0.00,-3.20,0.00,206.80,213.70,206.80,220.60
13.800,0,38.2991825,-104.6764152,1482.3,168.0,27,2.0,72.42,25.00,0.00,0,0,0.01,0.00,0.02,0.02,-0.25,83.8,3480,27,89.00,79.00,1.00,30.00,7.50,12.89,0.00,0.00,-3.20,0.00,206.80,213.70,206.80,220.60
13.840,0,38.2991799,-104.6764144,1482.3,167.8,27,2.0,72.72,25.00,0.00,0,0,0.00,0.00,-0.00,0.02,-0.03,83.8,3484,27,89.00,79.00,1.00,30.00,7.50,12.24,0.00,0.00,-3.20,0.00,206.80,213.70,206.80,220.60
13.880,0,38.2991772,-104.6764137,1482.3,167.9,27,2.0,73.03,25.00,0.00,0,0,-0.02,0.01,-0.03,0.03,-0.32,83.8,3489,27,88.61,79.00,1.00,30.00,7.50,12.00,0.00,0.00,-2.70,0.00,206.80,213.70,206.80,220.60
13.920,0,38.2991745,-104.6764131,1482.3,168.1,27,2.0,73.33,25.00,0.00,0,0,-0.01,-0.01,-0.03,0.04,-0.43,83.8,3494,27,88.00,79.00,1.00,30.00,7.50,12.00,0.00,0.00,-2.60,0.00,206.80,213.70,206.80,220.60
13.960,0,38.2991719,-104.6764124,1482.3,168.1,27,2.1,73.63,25.00,0.00,0,0,-0.00,-0.02,-0.01,0.03,-0.53,83.8,3497,27,88.00,79.00,1.00,30.00,7.50,12.00,0.00,0.00,-2.60,0.00,206.80,213.70,206.80,220.60
14.000,0,38.2991692,-104.6764117,1482.3,168.0,27,2.1,73.93,25.00,0.00,0,0,-0.02,-0.00,-0.02,0.04,-0.05,83.8,3499,27,88.00,79.00,1.00,30.00,7.50,12.00,0.00,0.00,-2.60,0.00,206.80,213.70,206.80,220.60
14.040,0,38.2991665,-104.6764110,1482.2,168.1,27,2.1,74.24,25.00,0.00,0,0,-0.04,0.00,-0.02,0.05,-0.27,83.8,3501,27,88.00,79.00,1.00,30.00,7.50,12.00,0.00,0.00,-2.60,0.00,206.80,213.70,206.80,220.60
14.080,0,38.2991638,-104.6764103,1482.2,168.2,27,2.1,74.55,25.00,0.00,0,0,-0.04,-0.02,-0.02,0.04,-0.27,83.8,3503,27,88.00,79.00,1.00,30.00,7.50,12.00,0.00,0.00,-2.60,0.00,206.80,213.70,206.80,220.60
14.120,0,38.2991611,-104.6764096,1482.2,168.3,27,2.1,74.85,25.00,0.00,0,0,-0.02,0.01,0.00,0.03,-0.05,83.8,3504,27,88.00,79.00,1.00,30.00,7.50,12.00,0.00,0.00,-2.60,0.00,206.80,213.70,206.80,220.60
14.160,0,38.2991585,-104.6764089,1482.2,168.2,27,2.1,75.15,25.00,0.00,0,0,-0.01,0.03,0.03,0.07,-0.34,83.8,3503,27,88.00,79.00,1.00,30.00,7.50,12.00,0.00,0.00,-2.60,0.00,206.80,213.70,206.80,220.60
14.200,0,38.2991558,-104.6764082,1482.2,167.9,27,2.1,75.45,25.00,0.00,0,0,0.03,-0.01,0.08,0.09,-0.41,83.8,3506,27,88.00,79.00,1.00,30.00,7.50,12.40,0.00,0.00,-2.60,0.00,206.80,213.70,206.80,220.60
14.240,0,38.2991531,-104.6764075,1482.2,167.7,27,2.1,75.76,25.00,0.00,0,0,0.03,-0.02,0.06,0.08,-0.18,83.8,3511,27,88.00,79.00,1.00,30.00,7.50,12.95,0.00,0.00,-2.60,0.00,206.80,213.70,206.80,220.60
14.280,0,38.2991504,-104.6764068,1482.2,167.9,27,2.1,76.06,25.00,0.00,0,0,0.00,-0.05,0.01,0.06,0.19,83.8,3519,27,88.00,79.00,1.00,30.00,7.50,12.27,0.00,0.00,-2.60,0.00,206.80,213.70,206.80,220.60
14.320,0,38.2991477,-104.6764061,1482.2,168.1,27,2.1,76.37,25.00,0.00,0,0,-0.01,-0.03,-0.03,0.04,0.40,83.8,3528,27,88.00,79.00,1.00,30.00,7.50,12.00,0.00,0.00,-2.60,0.00,206.80,213.70,206.80,220.60
14.360,0,38.2991450,-104.6764054,1482.2,168.2,27,2.1,76.67,25.00,0.00,0,0,-0.01,-0.01,-0.03,0.04,0.02,83.8,3538,27,88.00,79.00,1.00,30.00,7.50,12.00,0.00,0.00,-2.60,0.00,206.80,213.70,206.80,220.60
14.400,0,38.2991424,-104.6764047,1482.2,168.2,27,2.0,76.97,25.00,0.00,0,0,0.01,-0.01,-0.04,0.05,-0.66,83.8,3543,27,88.00,79.00,1.00,30.00,7.50,12.00,0.00,0.00,-2.60,0.00,206.80,213.70,206.80,220.60
14.440,0,38.2991397,-104.6764041,1482.2,168.4,27,2.0,77.27,25.00,0.00,0,0,0.03,-0.02,-0.01,0.05,-0.99,83.8,3546,27,88.00,79.00,1.00,30.00,7.50,12.00,0.00,0.00,-2.50,0.00,206.80,213.70,206.80,220.60
14.480,0,38.2991369,-104.6764034,1482.2,168.4,27,2.0,77.58,25.00,0.00,0,0,-0.02,0.06,0.03,0.07,0.23,83.8,3549,27,88.00,79.00,1.00,30.00,7.50,12.00,0.00,0.00,-2.50,0.00,206.80,213.70,206.80,220.60
14.520,0,38.2991342,-104.6764027,1482.2,168.4,28,2.0,77.90,25.00,0.00,0,0,-0.06,0.06,-0.01,0.08,1.04,83.8,3551,27,88.00,79.00,1.00,30.00,7.50,12.55,0.00,0.00,-2.50,0.00,206.80,213.70,206.80,220.60
14.560,0,38.2991315,-104.6764020,1482.2,168.4,28,2.0,78.20,25.00,0.00,0,0,-0.04,-0.00,-0.00,0.04,-0.56,83.8,3554,27,88.00,79.00,1.00,30.00,7.50,12.85,0.00,0.00,-2.50,0.00,206.80,213.70,206.80,220.60
14.600,0,38.2991288,-104.6764013,1482.2,168.1,27,2.0,78.51,25.00,0.00,0,0,0.01,-0.04,0.04,0.06,-0.75,83.8,3557,27,88.00,79.00,1.00,30.00,7.50,12.23,0.00,0.00,-2.50,0.00,206.80,213.70,206.80,220.60
14.640,0,38.2991261,-104.6764006,1482.2,167.9,27,2.0,78.82,25.00,0.00,0,0,-0.01,0.02,0.02,0.04,0.21,83.8,3558,27,88.00,79.00,1.00,30.00,7.50,12.00,0.00,0.00,-2.50,0.00,206.80,213.70,206.80,220.60
14.680,0,38.2991234,-104.6763999,1482.2,167.9,27,2.0,79.12,25.00,0.00,0,0,-0.02,-0.03,0.03,0.05,-0.51,83.8,3558,28,88.00,79.00,1.00,30.00,7.50,12.00,0.00,0.00,-2.50,0.00,206.80,213.70,206.80,220.60
14.720,0,38.2991206,-104.6763991,1482.2,167.9,28,2.0,79.43,25.00,0.00,0,0,-0.00,-0.01,-0.00,0.02,0.58,83.8,3558,28,88.00,79.00,1.00,30.00,7.50,12.00,0.00,0.00,-2.50,0.00,206.80,213.70,206.80,220.60
14.760,0,38.2991179,-104.6763984,1482.2,168.1,28,2.0,79.75,25.00,0.00,0,0,-0.00,-0.01,-0.01,0.02,-0.40,83.8,3562,28,88.00,79.00,1.00,30.00,7.50,12.00,0.00,0.00,-2.50,0.00,206.80,213.70,206.80,220.60
14.800,0,38.2991152,-104.6763977,1482.2,168.1,28,2.0,80.05,25.00,0.00,0,0,0.01,-0.01,-0.01,0.02,-0.89,83.8,3570,28,88.00,79.00,1.00,30.00,7.50,12.00,0.00,0.00,-2.60,0.00,206.80,213.70,206.80,220.60
14.840,0,38.2991125,-104.6763971,1482.2,168.3,28,2.0,80.36,25.00,0.00,0,0,-0.01,0.01,-0.02,0.03,-0.27,83.8,3576,28,88.00,79.00,1.00,30.00,7.50,12.00,0.00,0.00,-2.60,0.00,206.80,213.70,206.80,220.60
14.880,0,38.2991097,-104.6763964,1482.2,168.5,28,2.0,80.67,25.00,0.00,0,0,-0.02,0.01,-0.04,0.04,-0.56,83.8,3581,28,88.00,79.00,1.00,30.00,7.50,12.00,0.00,0.00,-3.60,0.00,206.80,213.70,206.80,220.60
14.920,0,38.2991070,-104.6763957,1482.2,168.7,28,2.0,80.98,25.00,0.00,0,0,0.00,-0.05,0.02,0.07,-1.11,83.8,3586,28,88.00,79.00,1.00,30.00,7.50,12.07,0.00,0.00,-5.70,0.00,206.80,213.70,206.80,220.60
14.960,0,38.2991042,-104.6763950,1482.2,168.6,28,2.0,81.30,25.00,0.00,0,0,0.03,-0.04,0.06,0.08,-1.28,83.8,3590,28,88.00,79.00,1.00,30.00,7.50,12.77,0.00,0.00,-5.70,0.00,206.80,213.70,206.80,220.60
15.000,0,38.2991015,-104.6763943,1482.2,168.3,28,2.0,81.60,25.00,0.00,0,0,0.01,-0.07,0.04,0.09,-1.93,83.8,3594,28,88.00,79.00,1.00,30.00,7.50,13.00,0.00,0.00,-8.10,0.00,206.80,213.70,206.80,220.60
15.040,0,38.2990987,-104.6763936,1482.1,168.3,28,2.0,81.92,25.00,0.00,0,0,-0.03,-0.02,0.02,0.08,-0.89,83.8,3599,28,88.00,79.00,1.00,30.00,7.50,12.81,0.00,0.00,-9.50,0.00,206.80,213.70,206.80,220.60
15.080,0,38.2990960,-104.6763929,1482.2,168.2,28,2.0,82.23,25.00,0.00,0,0,-0.03,-0.02,0.01,0.07,-0.79,83.8,3604,28,88.00,79.00,1.00,30.00,7.50,12.17,0.00,0.00,-9.50,0.00,206.80,213.70,206.80,220.60
15.120,0,38.2990931,-104.6763922,1482.1,168.5,28,2.0,82.54,25.00,0.00,0,0,-0.00,-0.05,-0.01,0.06,-1.61,83.8,3608,28,88.00,79.00,1.00,30.00,7.50,12.44,0.00,0.00,-9.50,0.00,206.80,213.70,206.80,220.60
15.160,0,38.2990904,-104.6763915,1482.1,168.8,28,2.0,82.86,25.00,0.00,0,0,0.02,-0.03,-0.02,0.04,-2.79,83.8,3611,28,87.95,79.00,1.00,30.00,7.50,12.91,0.00,0.00,-9.50,0.00,206.80,213.70,206.80,220.60
15.200,0,38.2990876,-104.6763909,1482.1,169.0,28,2.0,83.16,25.00,0.00,0,0,-0.01,0.00,-0.04,0.06,-2.20,83.8,3614,28,87.33,79.00,1.00,30.00,7.50,11.66,0.00,0.00,-9.50,0.00,206.80,213.70,206.80,220.60
15.240,0,38.2990849,-104.6763903,1482.1,169.2,28,2.0,83.48,25.00,0.00,0,0,-0.05,0.01,-0.04,0.08,-1.24,83.8,3617,28,87.00,79.00,1.00,30.00,7.50,11.29,0.00,0.00,-9.20,0.00,206.80,213.70,206.80,220.60
15.280,0,38.2990821,-104.6763896,1482.1,169.1,28,2.0,83.78,25.00,0.00,0,0,-0.04,-0.03,0.01,0.07,-1.06,83.8,3621,28,87.00,79.00,1.00,30.00,7.50,11.89,0.00,0.00,-9.20,0.00,206.80,213.70,206.80,220.60
15.320,0,38.2990793,-104.6763889,1482.1,169.1,28,2.0,84.10,25.00,0.00,0,0,0.02,-0.03,0.08,0.09,-1.64,83.8,3624,28,87.00,79.00,1.00,30.00,7.50,12.53,0.00,0.00,-9.20,0.00,206.80,213.70,206.80,220.60
15.360,0,38.2990766,-104.6763882,1482.1,168.8,28,2.0,84.42,25.00,0.00,0,0,0.03,-0.02,0.07,0.10,-1.28,83.8,3626,28,87.00,79.00,1.00,30.00,7.50,12.83,0.00,0.00,-9.20,0.00,206.80,213.70,206.80,220.60
15.400,0,38.2990737,-104.6763875,1482.1,168.9,28,2.0,84.73,25.00,0.00,0,0,-0.02,0.02,0.04,0.08,-1.04,83.8,3628,28,87.00,79.00,1.00,30.00,7.50,12.19,0.00,0.00,-9.20,0.00,206.80,213.70,206.80,220.60
15.440,0,38.2990710,-104.6763869,1482.1,169.3,28,2.0,85.05,25.00,0.00,0,0,0.00,-0.06,0.01,0.07,-1.28,83.8,3632,28,87.00,79.00,1.00,30.00,7.50,12.45,0.00,0.00,-8.60,0.00,206.80,213.70,206.80,220.60
15.480,0,38.2990681,-104.6763863,1482.1,169.5,28,2.0,85.36,25.00,0.00,0,0,-0.00,0.00,-0.02,0.02,-0.98,83.8,3636,28,87.00,79.00,1.00,30.00,7.50,12.91,0.00,0.00,-7.20,0.00,206.80,213.70,206.80,220.60
15.520,0,38.2990653,-104.6763857,1482.1,169.6,28,2.0,85.68,25.00,0.00,0,0,0.01,0.03,-0.03,0.04,-1.21,83.8,3644,28,87.00,79.00,1.00,30.00,7.50,12.29,0.00,0.00,-7.20,0.00,206.80,213.70,206.80,220.60
15.560,0,38.2990626,-104.6763850,1482.1,169.5,28,2.0,86.00,25.00,0.00,0,0,0.02,0.04,-0.00,0.05,-1.30,83.8,3652,28,87.00,79.00,1.00,30.00,7.50,12.30,0.00,0.00,-6.80,0.00,206.80,213.70,206.80,220.60
15.600,0,38.2990597,-104.6763843,1482.1,169.3,28,2.0,86.31,25.00,0.00,0,0,0.00,-0.01,0.00,0.03,-0.53,83.8,3659,28,87.00,79.00,1.00,30.00,7.50,12.87,0.00,0.00,-6.80,0.00,206.80,213.70,206.80,220.60
15.640,0,38.2990570,-104.6763836,1482.1,169.3,28,2.1,86.63,25.00,0.00,0,0,-0.01,0.07,0.02,0.10,-0.32,83.8,3662,28,87.00,79.00,1.00,30.00,7.50,12.52,0.00,0.00,-6.80,0.00,206.80,213.70,206.80,220.60
15.680,0,38.2990541,-104.6763830,1482.1,169.4,28,2.1,86.95,25.00,0.00,0,0,0.05,-0.07,0.08,0.12,-2.32,83.8,3664,28,87.00,79.00,1.00,30.00,7.50,12.00,0.00,0.00,-6.80,0.00,206.80,213.70,206.80,220.60
15.720,0,38.2990514,-104.6763824,1482.1,169.6,28,2.0,87.26,25.00,0.00,0,0,-0.03,-0.04,0.02,0.05,-0.60,83.8,3666,28,87.00,79.00,1.00,30.00,7.50,12.00,0.00,0.00,-6.80,0.00,206.80,213.70,206.80,220.60
15.760,0,38.2990486,-104.6763817,1482.1,169.5,28,2.0,87.57,25.07,0.00,0,0,-0.07,-0.01,-0.02,0.07,0.30,83.8,3669,28,87.00,79.00,1.00,30.00,7.50,12.00,0.00,0.00,-6.40,0.00,206.80,213.70,206.80,220.60
15.800,0,38.2990457,-104.6763811,1482.1,169.7,28,2.0,87.89,25.56,0.00,0,0,-0.01,-0.01,-0.02,0.03,-0.67,83.8,3673,28,87.00,79.00,1.00,30.00,7.50,12.00,0.00,0.00,-5.40,0.00,206.80,213.70,206.80,220.60
15.840,0,38.2990430,-104.6763804,1482.1,169.6,28,2.0,88.21,25.00,0.00,0,0,0.00,-0.00,-0.01,0.01,-1.39,83.8,3674,28,87.00,79.00,1.00,30.00,7.50,12.00,0.00,0.00,-5.40,0.00,206.80,213.70,206.80,220.60
15.880,0,38.2990401,-104.6763798,1482.1,169.7,28,2.0,88.53,25.00,0.00,0,0,-0.03,0.02,-0.02,0.04,-0.61,83.8,3675,28,87.00,79.00,1.00,30.00,7.50,12.00,0.00,0.00,-5.10,0.00,206.80,213.70,206.80,220.60
15.920,0,38.2990372,-104.6763792,1482.1,169.8,29,2.0,88.85,25.00,0.00,0,0,-0.01,-0.02,0.00,0.03,-0.69,83.8,3676,28,87.00,79.00,1.00,30.00,7.50,12.00,0.00,0.00,-5.10,0.00,206.80,213.70,206.80,220.60
15.960,0,38.2990345,-104.6763785,1482.1,169.8,29,2.0,89.17,25.00,0.00,0,0,-0.00,0.04,0.03,0.06,-0.52,83.8,3677,29,87.00,79.00,1.00,30.00,7.50,12.00,0.00,0.00,-5.10,0.00,206.80,213.70,206.80,220.60
16.000,0,38.2990316,-104.6763779,1482.1,169.9,29,2.0,89.48,25.00,0.00,0,0,0.01,-0.02,0.04,0.06,-1.20,83.8,3679,29,87.00,79.00,1.00,30.00,7.50,12.00,0.00,0.00,-5.10,0.00,206.80,213.70,206.80,220.60
16.040,0,38.2990287,-104.6763773,1482.1,169.7,29,2.0,89.81,25.00,0.00,0,0,0.00,-0.02,0.02,0.02,-1.00,83.8,3687,29,87.00,79.00,1.00,30.00,7.50,12.00,0.00,0.00,-5.10,0.00,206.80,213.70,206.80,220.60
16.080,0,38.2990260,-104.6763766,1482.1,169.7,29,2.0,90.13,25.00,0.00,0,0,-0.01,0.00,0.01,0.02,-0.35,83.8,3693,29,87.00,79.00,1.00,30.00,7.50,12.00,0.00,0.00,-4.60,0.00,206.80,213.70,206.80,220.60
16.120,0,38.2990231,-104.6763760,1482.1,169.7,29,2.0,90.44,25.00,0.00,0,0,-0.01,0.02,-0.01,0.03,0.24,83.8,3698,29,87.00,79.00,1.00,30.00,7.50,12.00,0.00,0.00,-4.60,0.00,206.80,213.70,206.80,220.60
16.160,0,38.2990202,-104.6763754,1482.1,169.8,29,2.0,90.77,25.00,0.00,0,0,0.02,-0.01,-0.00,0.04,-0.99,83.8,3702,29,87.00,79.00,1.00,30.00,7.50,12.00,0.00,0.00,-4.50,0.00,206.80,213.70,206.80,220.60
16.200,0,38.2990174,-104.6763747,1482.1,170.1,29,2.0,91.09,25.00,0.00,0,0,0.02,-0.01,0.01,0.03,-0.87,83.8,3705,29,87.00,79.00,1.00,30.00,7.50,12.00,0.00,0.00,-4.50,0.00,206.80,213.70,206.80,220.60
16.240,0,38.2990146,-104.6763741,1482.1,170.0,29,2.0,91.41,25.00,0.00,0,0,-0.00,0.00,-0.00,0.02,-0.40,83.8,3707,29,87.00,79.00,1.00,30.00,7.50,12.00,0.00,0.00,-4.50,0.00,206.80,213.70,206.80,220.60
16.280,0,38.2990117,-104.6763735,1482.1,169.9,29,2.0,91.73,25.00,0.00,0,0,-0.02,0.01,-0.03,0.04,-0.22,83.8,3713,29,87.00,79.00,1.00,30.00,7.50,12.00,0.00,0.00,-4.50,0.00,206.80,213.70,206.80,220.60
16.320,0,38.2990088,-104.6763729,1482.1,169.9,29,2.0,92.05,25.00,0.00,0,0,-0.02,0.01,-0.03,0.04,-0.27,83.8,3718,29,87.00,79.00,1.00,30.00,7.50,12.00,0.00,0.00,-4.50,0.00,206.80,213.70,206.80,220.60
16.360,0,38.2990060,-104.6763722,1482.0,170.0,29,2.0,92.37,25.00,0.00,0,0,-0.00,0.01,0.00,0.02,-1.08,83.8,3723,29,87.00,79.00,1.00,30.00,7.50,12.00,0.00,0.00,-4.50,0.00,206.80,213.70,206.80,220.60
16.400,0,38.2990031,-104.6763716,1482.0,170.0,29,2.0,92.69,25.00,0.00,0,0,0.01,0.01,0.03,0.03,-0.88,83.8,3724,29,87.00,79.00,1.00,30.00,7.50,12.00,0.00,0.00,-4.50,0.00,206.80,213.70,206.80,220.60
16.440,0,38.2990003,-104.6763710,1482.0,169.9,29,2.0,93.01,25.00,0.00,0,0,-0.01,0.02,0.02,0.04,-0.29,83.8,3726,29,87.00,79.00,1.00,30.00,7.50,12.00,0.00,0.00,-4.50,0.00,206.80,213.70,206.80,220.60
16.480,0,38.2989974,-104.6763703,1482.0,169.9,29,2.0,93.34,25.00,0.00,0,0,-0.02,0.01,0.00,0.03,-0.28,83.8,3728,29,87.00,79.00,1.00,30.00,7.50,12.00,0.00,0.00,-4.50,0.00,206.80,213.70,206.80,220.60
16.520,0,38.2989945,-104.6763697,1482.0,169.9,29,2.0,93.66,25.00,0.00,0,0,-0.02,-0.00,0.01,0.03,-0.34,83.8,3732,29,87.00,79.00,1.00,30.00,7.50,12.00,0.00,0.00,-4.40,0.00,206.80,213.70,206.80,220.60
16.560,0,38.2989917,-104.6763691,1482.0,170.0,29,2.0,93.98,25.00,0.00,0,0,0.01,-0.01,0.03,0.03,-0.25,83.8,3736,29,86.95,79.00,1.00,30.00,7.50,12.00,0.00,0.00,-4.30,0.00,206.80,213.70,206.80,220.60
16.600,0,38.2989888,-104.6763684,1482.0,169.9,29,2.0,94.31,25.00,0.00,0,0,0.02,-0.00,0.03,0.04,-0.66,83.8,3739,29,86.35,79.00,1.00,30.00,7.50,12.00,0.00,0.00,-4.30,0.00,206.80,213.70,206.80,220.60
16.640,0,38.2989859,-104.6763678,1482.0,170.0,29,2.0,94.63,25.00,0.00,0,0,0.02,-0.02,0.03,0.04,-0.48,83.8,3741,29,86.00,79.00,1.00,30.00,7.50,12.00,0.00,0.00,-3.90,0.00,206.80,213.70,206.80,220.60
16.680,0,38.2989830,-104.6763672,1482.0,169.9,29,2.0,94.96,25.00,0.00,0,0,0.01,0.00,0.02,0.02,-0.11,83.8,3743,29,86.00,79.00,1.00,30.00,7.50,12.00,0.00,0.00,-3.90,0.00,206.80,213.70,206.80,220.60
16.720,0,38.2989802,-104.6763666,1482.0,170.2,29,2.0,95.28,25.00,0.00,0,0,-0.00,0.01,-0.00,0.01,-0.46,83.8,3751,29,86.00,79.00,1.00,30.00,7.50,12.00,0.00,0.00,-3.70,0.00,206.80,213.70,206.80,220.60
16.760,0,38.2989773,-104.6763660,1482.0,170.4,29,2.0,95.60,25.00,0.00,0,0,-0.01,0.02,-0.03,0.03,-0.18,83.8,3759,29,86.00,79.00,1.00,30.00,7.50,12.00,0.00,0.00,-3.70,0.00,206.80,213.70,206.80,220.60
16.800,0,38.2989744,-104.6763654,1482.0,170.3,29,2.0,95.93,25.00,0.00,0,0,-0.01,0.04,-0.03,0.06,-0.33,83.8,3762,29,86.00,79.00,1.00,30.00,7.50,12.00,0.00,0.00,-3.70,0.00,206.80,213.70,206.80,220.60
16.840,0,38.2989715,-104.6763647,1482.0,170.3,29,2.0,96.26,25.00,0.00,0,0,0.02,-0.03,0.02,0.04,-1.37,83.8,3765,29,86.00,79.00,1.00,30.00,7.50,12.00,0.00,0.00,-3.70,0.00,206.80,213.70,206.80,220.60
16.880,0,38.2989686,-104.6763641,1482.0,170.0,29,2.0,96.58,25.00,0.00,0,0,0.01,-0.03,0.02,0.04,-1.01,83.8,3767,29,86.00,79.00,1.00,30.00,7.50,12.00,0.00,0.00,-3.70,0.00,206.80,213.70,206.80,220.60
16.920,0,38.2989658,-104.6763635,1482.0,170.1,29,2.0,96.91,25.00,0.00,0,0,-0.03,0.02,0.03,0.05,0.07,83.8,3768,29,86.00,79.00,1.00,30.00,7.50,12.00,0.00,0.00,-3.70,0.00,206.80,213.70,206.80,220.60
16.960,0,38.2989629,-104.6763628,1482.0,170.1,29,2.0,97.22,25.00,0.00,0,0,-0.05,0.00,0.02,0.06,0.89,83.8,3769,29,86.00,79.00,1.00,30.00,7.50,12.00,0.00,0.00,-3.70,0.00,206.80,213.70,206.80,220.60
17.000,0,38.2989600,-104.6763622,1482.0,170.2,29,2.0,97.55,25.00,0.00,0,0,-0.00,0.01,0.04,0.04,-0.35,83.8,3771,29,86.00,79.00,1.00,30.00,7.50,12.00,0.00,0.00,-3.70,0.00,206.80,213.70,206.80,220.60
17.040,0,38.2989570,-104.6763616,1482.0,170.3,29,2.0,97.89,25.00,0.00,0,0,0.01,-0.03,0.03,0.04,-0.84,83.8,3774,29,86.00,79.00,1.00,30.00,7.50,12.00,0.00,0.00,-3.50,0.00,206.80,213.70,206.80,220.60
17.080,0,38.2989541,-104.6763610,1482.0,170.4,29,2.0,98.21,25.00,0.00,0,0,-0.02,0.02,0.01,0.03,0.05,83.8,3776,29,86.00,79.00,1.00,30.00,7.50,12.00,0.00,0.00,-3.50,0.00,206.80,213.70,206.80,220.60
17.120,0,38.2989512,-104.6763604,1482.0,170.3,29,2.0,98.54,25.00,0.00,0,0,-0.01,-0.01,-0.01,0.02,-0.31,83.8,3778,29,86.00,79.00,1.00,30.00,7.50,12.00,0.00,0.00,-3.40,0.00,206.80,213.70,206.80,220.60
17.160,0,38.2989483,-104.6763598,1482.0,170.3,29,2.0,98.87,25.00,0.00,0,0,0.01,-0.00,0.01,0.02,-0.42,83.8,3780,29,86.00,79.00,1.00,30.00,7.50,12.00,0.00,0.00,-3.40,0.00,206.80,213.70,206.80,220.60
17.200,0,38.2989454,-104.6763591,1482.0,170.3,29,2.0,99.19,25.00,0.00,0,0,0.01,0.01,-0.02,0.03,-0.82,83.8,3785,29,86.00,79.00,1.00,30.00,7.50,12.00,0.00,0.00,-3.40,0.00,206.80,213.70,206.80,220.60
17.240,0,38.2989425,-104.6763585,1482.0,170.5,29,2.0,99.52,25.00,0.00,0,0,-0.00,-0.01,-0.01,0.02,-1.70,83.8,3791,29,86.00,79.00,1.00,30.00,7.50,12.00,0.00,0.00,-3.40,0.00,206.80,213.70,206.80,220.60
17.280,0,38.2989396,-104.6763579,1482.0,170.6,29,2.0,99.85,25.00,0.00,0,0,-0.04,0.01,-0.01,0.04,1.32,83.8,3795,29,86.00,79.00,1.00,30.00,7.50,12.00,0.00,0.00,-3.40,0.00,206.80,213.70,206.80,220.60
17.320,0,38.2989366,-104.6763573,1482.0,170.3,30,2.0,100.18,25.00,0.00,0,0,-0.01,0.02,-0.00,0.03,-0.05,83.8,3796,29,86.00,79.00,1.00,30.00,7.50,12.00,0.00,0.00,-3.40,0.00,206.80,213.70,206.80,220.60
17.360,0,38.2989337,-104.6763566,1482.0,170.0,29,2.1,100.51,25.00,0.00,0,0,0.02,0.01,0.02,0.04,-1.17,83.8,3796,29,86.00,79.00,1.00,30.00,7.50,12.00,0.00,0.00,-3.40,0.00,206.80,213.70,206.80,220.60
17.400,0,38.2989308,-104.6763560,1482.0,170.0,29,2.1,100.84,25.00,0.00,0,0,0.00,-0.00,0.02,0.03,-0.87,83.8,3798,29,86.00,79.00,1.00,30.00,7.50,12.00,0.00,0.00,-3.40,0.00,206.80,213.70,206.80,220.60
17.440,0,38.2989279,-104.6763554,1481.9,170.2,30,2.1,101.16,25.00,0.00,0,0,-0.02,0.03,-0.00,0.04,0.36,83.8,3800,29,86.00,79.00,1.00,30.00,7.50,12.00,0.00,0.00,-3.40,0.00,206.80,213.70,206.80,220.60
17.480,0,38.2989249,-104.6763548,1481.9,170.4,30,2.1,101.50,25.00,0.00,0,0,-0.00,0.03,0.02,0.05,0.12,83.8,3802,29,86.00,79.00,1.00,30.00,7.50,12.00,0.00,0.00,-3.40,0.00,206.80,213.70,206.80,220.60
17.520,0,38.2989220,-104.6763542,1481.9,170.6,30,2.1,101.83,25.00,0.00,0,0,0.02,0.01,0.02,0.04,-0.38,83.8,3806,29,86.00,79.00,1.00,30.00,7.50,12.00,0.00,0.00,-3.40,0.00,206.80,213.70,206.80,220.60
17.560,0,38.2989191,-104.6763536,1481.9,170.8,30,2.0,102.15,25.00,0.00,0,0,0.02,-0.04,0.01,0.06,-1.60,83.8,3809,29,86.00,79.00,1.00,30.00,7.50,11.62,0.00,0.00,-3.40,0.00,206.80,213.70,206.80,220.60
17.600,0,38.2989161,-104.6763530,1481.9,170.5,30,1.9,102.49,25.00,0.00,0,0,-0.00,-0.04,0.01,0.06,-0.20,83.8,3812,30,86.00,79.00,1.00,30.00,7.50,11.00,0.00,0.00,-3.20,0.00,206.80,213.70,206.80,220.60
17.640,0,38.2989132,-104.6763523,1481.9,170.2,30,1.9,102.82,25.00,0.00,0,0,-0.02,0.02,-0.00,0.02,0.94,83.8,3816,30,86.00,79.00,1.00,30.00,7.50,11.00,0.00,0.00,-3.20,0.00,206.80,213.70,206.80,220.60
17.680,0,38.2989103,-104.6763516,1481.9,170.0,30,1.9,103.14,25.00,0.00,0,0,-0.00,0.03,-0.01,0.03,0.16,83.8,3819,30,86.00,79.00,1.00,30.00,7.50,10.72,0.00,0.00,-3.20,0.00,206.80,213.70,206.80,220.60
17.720,0,38.2989074,-104.6763511,1481.9,170.4,30,1.9,103.47,25.00,0.00,0,0,0.02,0.03,-0.00,0.03,-0.58,83.8,3822,30,86.00,79.00,1.00,30.00,7.50,10.09,0.00,0.00,-3.20,0.00,206.80,213.70,206.80,220.60
17.760,0,38.2989044,-104.6763505,1481.9,170.5,30,1.9,103.81,25.00,0.00,0,0,0.01,0.02,0.01,0.03,-0.87,83.8,3824,30,86.00,79.00,1.00,30.00,7.50,10.00,0.00,0.00,-3.10,0.00,206.80,213.70,206.80,220.60
17.800,0,38.2989015,-104.6763499,1481.9,170.5,30,1.9,104.13,25.00,0.00,0,0,0.00,-0.01,0.04,0.05,-0.62,83.8,3826,30,86.00,79.00,1.00,30.00,7.50,10.00,0.00,0.00,-3.10,0.00,206.80,213.70,206.80,220.60
17.840,0,38.2988985,-104.6763492,1481.9,170.4,30,1.9,104.47,25.00,0.00,0,0,0.01,-0.03,0.04,0.06,0.10,83.8,3821,30,86.00,79.00,1.00,30.00,7.50,10.00,0.00,0.00,-3.10,0.00,206.80,213.70,206.80,220.60
17.880,0,38.2988956,-104.6763486,1481.9,170.6,30,1.9,104.80,25.00,0.00,0,0,-0.01,-0.00,0.02,0.03,0.31,83.8,3818,30,86.00,79.00,1.00,30.00,7.50,9.55,0.00,0.00,-3.10,0.00,206.80,213.70,206.80,220.60
17.920,0,38.2988927,-104.6763480,1481.9,170.6,30,1.9,105.13,25.00,0.00,0,0,0.02,-0.02,0.02,0.04,-0.25,83.8,3817,30,86.00,79.00,1.00,30.00,7.50,8.26,0.00,0.00,-3.10,0.00,206.80,213.70,206.80,220.60
17.960,0,38.2988897,-104.6763474,1481.9,170.5,30,1.9,105.46,25.00,0.00,0,0,0.03,0.01,0.03,0.05,-0.50,83.8,3815,30,86.00,79.00,1.00,30.00,7.50,7.46,0.00,0.00,-2.50,0.00,206.80,213.70,206.80,220.60
18.000,0,38.2988868,-104.6763468,1481.9,170.3,30,1.9,105.79,25.00,0.00,0,0,0.01,0.03,0.00,0.04,-0.20,83.8,3814,30,86.00,79.00,1.00,30.00,7.50,7.00,0.00,0.00,-2.30,0.00,206.80,213.70,206.80,220.60
18.040,0,38.2988839,-104.6763461,1481.9,170.2,30,1.9,106.12,25.00,0.00,0,0,0.01,0.00,-0.02,0.02,0.00,83.8,3812,30,86.00,79.00,1.00,30.00,7.50,7.00,0.00,0.00,-2.30,0.00,206.80,213.70,206.80,220.60
18.080,0,38.2988809,-104.6763455,1481.9,170.3,30,1.9,106.45,25.00,0.00,0,0,0.02,0.01,0.00,0.03,-0.04,83.8,3810,30,86.00,79.00,1.00,30.00,7.50,7.53,0.00,0.00,-2.30,0.00,206.80,213.70,206.80,220.60
18.120,0,38.2988780,-104.6763449,1481.9,170.6,30,1.9,106.78,25.00,0.00,0,0,0.04,-0.03,0.03,0.06,-0.83,83.8,3808,30,86.00,79.00,1.00,30.00,7.50,7.84,0.00,0.00,-2.30,0.00,206.80,213.70,206.80,220.60
18.160,0,38.2988750,-104.6763443,1481.9,170.9,30,1.9,107.12,25.00,0.00,0,0,0.01,0.01,0.00,0.02,-0.25,83.8,3809,30,86.00,79.00,1.00,30.00,7.50,7.19,0.00,0.00,-2.30,0.00,206.80,213.70,206.80,220.60
18.200,0,38.2988721,-104.6763438,1481.9,171.0,30,1.9,107.44,25.00,0.00,0,0,0.00,0.04,-0.01,0.04,0.24,83.8,3808,30,86.00,79.00,1.00,30.00,7.50,7.00,0.00,0.00,-2.30,0.00,206.80,213.70,206.80,220.60
18.240,0,38.2988692,-104.6763432,1481.9,170.8,30,1.9,107.77,25.00,0.00,0,0,0.01,0.06,-0.01,0.06,0.06,83.8,3806,30,86.00,79.00,1.00,30.00,7.50,7.00,0.00,0.00,-2.30,0.00,206.80,213.70,206.80,220.60
18.280,0,38.2988662,-104.6763425,1481.9,170.4,30,1.9,108.10,25.00,0.00,0,0,0.04,-0.01,0.01,0.05,-1.30,83.8,3799,30,86.00,79.00,1.00,30.00,7.50,7.00,0.00,0.00,-2.30,0.00,206.80,213.70,206.80,220.60
18.320,0,38.2988633,-104.6763419,1481.9,170.1,30,1.9,108.43,25.00,0.00,0,0,0.04,-0.04,0.01,0.06,-0.59,83.8,3794,30,86.00,79.00,1.00,30.00,7.50,7.41,0.00,0.00,-2.30,0.00,206.80,213.70,206.80,220.60
18.360,0,38.2988604,-104.6763412,1481.9,170.1,30,1.9,108.76,25.00,0.00,0,0,0.02,-0.02,-0.00,0.03,0.19,83.8,3790,30,86.00,79.00,1.00,30.00,7.50,7.92,0.00,0.00,-2.30,0.00,206.80,213.70,206.80,220.60
18.400,0,38.2988575,-104.6763406,1481.9,170.2,30,1.9,109.08,25.00,0.00,0,0,0.02,0.02,0.02,0.04,0.12,83.8,3788,29,86.00,79.00,1.00,30.00,7.50,7.24,0.00,0.00,-2.30,0.00,206.80,213.70,206.80,220.60
18.440,0,38.2988546,-104.6763401,1481.9,170.6,30,1.9,109.41,25.00,0.00,0,0,0.03,0.00,0.04,0.05,0.59,83.8,3788,29,86.00,79.00,1.00,30.00,7.50,7.00,0.00,0.00,-2.20,0.00,206.80,213.70,206.80,220.60
18.480,0,38.2988516,-104.6763395,1481.9,170.8,30,1.9,109.75,25.00,0.00,0,0,0.05,0.03,0.01,0.06,0.30,83.8,3789,29,86.00,79.00,1.00,30.00,7.50,7.00,0.00,0.00,-1.80,0.00,206.80,213.70,206.80,220.60
18.520,0,38.2988487,-104.6763389,1481.9,170.8,30,1.9,110.07,25.00,0.00,0,0,0.04,0.04,-0.02,0.06,-0.75,83.8,3787,29,86.00,79.00,1.00,30.00,7.50,7.00,0.00,0.00,-1.80,0.00,206.80,213.70,206.80,220.60
18.560,0,38.2988458,-104.6763383,1481.9,170.4,29,1.9,110.40,25.00,0.00,0,0,0.01,0.02,-0.04,0.05,-0.61,83.8,3787,29,86.00,79.00,1.00,30.00,7.50,7.00,0.00,0.00,-1.60,0.00,206.80,213.70,206.80,220.60
18.600,0,38.2988429,-104.6763376,1481.9,170.3,29,1.9,110.73,25.00,0.00,0,0,0.01,0.02,-0.02,0.03,-0.24,83.8,3786,29,86.00,79.00,1.00,30.00,7.50,7.00,0.00,0.00,-1.60,0.00,206.80,213.70,206.80,220.60
18.640,0,38.2988400,-104.6763370,1481.9,170.4,29,1.9,111.05,25.00,0.00,0,0,0.03,-0.01,0.02,0.05,-0.37,83.8,3784,29,86.00,79.00,1.00,30.00,7.50,7.00,0.00,0.00,-1.60,0.00,206.80,213.70,206.80,220.60
18.680,0,38.2988371,-104.6763364,1481.9,170.5,29,1.9,111.38,25.00,0.00,0,0,0.03,-0.03,0.01,0.04,0.18,83.8,3780,29,86.00,79.00,1.00,30.00,7.50,7.00,0.00,0.00,-1.60,0.00,206.80,213.70,206.80,220.60
18.720,0,38.2988342,-104.6763358,1481.9,170.5,29,1.9,111.71,25.00,0.00,0,0,-0.00,-0.01,-0.00,0.03,-0.18,83.8,3776,29,86.00,79.00,1.00,30.00,7.50,7.00,0.00,0.00,-1.60,0.00,206.80,213.70,206.80,220.60
18.760,0,38.2988313,-104.6763352,1481.9,170.5,29,1.9,112.03,25.00,0.00,0,0,-0.01,-0.00,0.00,0.02,0.32,83.8,3773,29,86.00,79.00,1.00,30.00,7.50,7.00,0.00,0.00,-1.60,0.00,206.80,213.70,206.80,220.60
18.800,0,38.2988284,-104.6763346,1481.9,170.6,29,1.9,112.36,25.00,0.00,0,0,0.01,0.02,0.01,0.03,0.13,83.8,3771,29,86.00,79.00,1.00,30.00,7.50,7.00,0.00,0.00,-1.30,0.00,206.80,213.70,206.80,220.60
18.840,0,38.2988255,-104.6763340,1481.9,170.6,29,1.9,112.68,25.00,0.00,0,0,0.02,0.03,0.00,0.04,-0.21,83.8,3769,29,86.00,79.00,1.00,30.00,7.50,6.61,0.00,0.00,-1.10,0.00,206.80,213.70,206.80,220.60
18.880,0,38.2988226,-104.6763334,1481.9,170.4,29,1.9,113.01,25.00,0.00,0,0,0.01,0.01,-0.01,0.03,0.03,83.8,3764,29,86.00,79.00,1.00,30.00,7.50,5.21,0.00,0.00,-1.10,0.00,206.80,213.70,206.80,220.60
18.920,0,38.2988197,-104.6763328,1481.9,170.3,29,1.9,113.34,25.00,0.00,0,0,0.02,-0.01,-0.01,0.02,0.14,83.8,3760,29,86.00,79.00,1.00,30.00,7.50,5.00,0.00,0.00,-1.00,0.00,206.80,213.70,206.80,220.60
18.960,0,38.2988168,-104.6763322,1481.9,170.6,29,1.9,113.66,25.00,0.00,0,0,0.04,-0.02,-0.00,0.04,-0.57,83.8,3757,29,86.00,79.23,1.00,30.00,7.50,4.77,0.00,0.00,-1.00,0.00,206.80,213.70,206.80,220.60
19.000,0,38.2988139,-104.6763316,1481.9,170.7,29,1.9,113.99,25.00,0.00,0,0,0.05,-0.02,0.02,0.05,-0.26,83.8,3754,29,86.00,79.90,1.00,30.00,7.50,4.10,0.00,0.00,-1.00,0.00,206.80,213.70,206.80,220.60
19.040,0,38.2988110,-104.6763310,1481.9,170.6,29,1.9,114.31,25.00,0.00,0,0,0.03,0.00,-0.00,0.04,0.46,83.8,3753,29,86.00,80.00,1.00,30.00,7.50,4.00,0.00,0.00,-0.90,0.00,206.80,213.70,206.80,220.60
19.080,0,38.2988081,-104.6763304,1481.9,170.4,29,1.9,114.64,25.00,0.00,0,0,0.01,0.02,-0.05,0.05,0.20,83.8,3752,29,86.00,80.00,1.00,30.00,7.50,4.00,0.00,0.00,-0.70,0.00,206.80,213.70,206.80,220.60
19.120,0,38.2988052,-104.6763298,1481.9,170.5,29,1.9,114.97,25.00,0.00,0,0,0.02,0.02,-0.02,0.04,-0.15,83.8,3749,29,86.00,80.00,1.00,30.00,7.50,4.00,0.00,0.00,-0.70,0.00,206.80,213.70,206.80,220.60
19.160,0,38.2988023,-104.6763292,1481.9,170.4,29,1.9,115.29,25.00,0.00,0,0,0.05,0.01,0.02,0.06,0.12,83.8,3748,29,86.00,80.00,1.00,30.00,7.50,4.33,0.00,0.00,-0.40,0.00,206.80,213.70,206.80,220.60
19.200,0,38.2987994,-104.6763286,1481.9,170.6,29,1.9,115.62,25.00,0.00,0,0,0.04,0.02,0.03,0.06,0.24,83.8,3748,29,86.00,80.00,1.00,30.00,7.50,4.94,0.00,0.00,-0.40,0.00,206.80,213.70,206.80,220.60
19.240,0,38.2987965,-104.6763280,1481.9,170.7,29,1.9,115.95,25.00,0.00,0,0,0.05,-0.04,0.03,0.07,0.00,83.8,3743,29,86.00,80.00,1.00,30.00,7.50,5.00,0.00,0.00,-0.40,0.00,206.80,213.70,206.80,220.60
19.280,0,38.2987936,-104.6763274,1481.9,170.8,29,1.9,116.27,25.00,0.00,0,0,0.05,-0.04,0.03,0.07,0.03,83.8,3739,29,86.00,80.00,1.00,30.00,7.50,4.84,0.00,0.00,-0.40,0.00,206.80,213.70,206.80,220.60
19.320,0,38.2987907,-104.6763269,1481.9,170.7,29,1.9,116.60,25.00,0.00,0,0,0.04,-0.02,0.03,0.05,0.16,83.8,3737,29,86.00,80.00,1.00,30.00,7.50,4.18,0.00,0.00,-0.40,0.00,206.80,213.70,206.80,220.60
19.360,0,38.2987878,-104.6763262,1481.9,170.5,29,1.9,116.92,25.00,0.00,0,0,0.02,0.01,-0.03,0.04,0.43,83.8,3735,29,86.00,80.00,1.00,30.00,7.50,4.00,0.00,0.00,0.10,0.00,206.80,213.70,206.80,220.60
19.400,0,38.2987850,-104.6763256,1481.9,170.5,29,1.9,117.24,25.00,0.00,0,0,-0.01,0.06,-0.07,0.09,0.87,83.8,3732,29,86.00,80.00,1.00,30.00,7.50,4.00,0.00,0.00,1.00,0.00,206.80,213.70,206.80,220.60
19.440,0,38.2987821,-104.6763251,1481.9,170.6,29,1.9,117.56,25.00,0.00,0,0,0.04,0.07,0.02,0.08,0.99,83.8,3728,29,86.00,80.00,1.00,30.00,7.50,4.00,0.00,0.00,1.00,0.00,206.80,213.70,206.80,220.60
19.480,0,38.2987793,-104.6763245,1481.9,170.7,29,1.9,117.89,25.00,0.00,0,0,0.08,0.04,0.06,0.10,0.31,83.8,3726,29,86.00,80.00,1.00,30.00,7.50,4.55,0.00,0.00,1.30,0.00,206.80,213.70,206.80,220.60
19.520,0,38.2987764,-104.6763239,1481.9,170.7,29,1.9,118.21,25.00,0.00,0,0,0.07,-0.04,0.05,0.10,-0.70,83.8,3723,29,86.00,80.00,1.00,30.00,7.50,4.75,0.00,0.00,1.20,0.00,206.80,213.70,206.80,220.60
19.560,0,38.2987735,-104.6763233,1481.9,170.6,29,1.9,118.53,25.00,0.00,0,0,0.03,-0.03,0.06,0.07,0.59,83.8,3718,29,86.00,80.00,1.00,30.00,7.50,4.05,0.00,0.00,1.20,0.00,206.80,213.70,206.80,220.60
19.600,0,38.2987706,-104.6763226,1481.8,170.2,29,1.9,118.86,25.00,0.00,0,0,0.01,-0.03,0.02,0.04,1.21,83.8,3717,29,86.00,80.00,1.00,30.00,7.50,4.00,0.00,0.00,1.20,0.00,206.80,213.70,206.80,220.60
19.640,0,38.2987677,-104.6763220,1481.8,170.2,29,1.9,119.18,25.00,0.00,0,0,0.01,0.02,-0.01,0.03,1.26,83.8,3716,29,86.00,80.00,1.00,30.00,7.50,3.11,0.00,0.00,1.90,0.00,206.80,213.70,206.80,220.60
19.680,0,38.2987649,-104.6763214,1481.8,170.3,29,1.9,119.50,25.00,0.00,0,0,0.04,0.03,-0.04,0.06,0.49,83.8,3712,29,86.00,80.00,1.00,30.00,7.50,0.57,0.00,0.00,1.90,0.00,206.80,213.70,206.80,220.60
19.720,0,38.2987621,-104.6763208,1481.8,170.3,29,1.9,119.83,25.00,0.00,0,0,0.06,0.03,-0.01,0.07,0.00,83.8,3710,29,86.00,80.00,1.00,30.00,7.50,0.00,0.00,0.00,3.00,0.00,206.80,213.70,206.80,220.60
19.760,0,38.2987592,-104.6763203,1481.8,170.4,29,1.9,120.14,25.00,0.00,0,0,0.02,0.06,0.02,0.07,0.95,83.8,3708,29,86.00,80.00,1.00,30.00,7.50,0.00,0.00,0.00,3.10,0.00,206.80,213.70,206.80,220.60
19.800,0,38.2987564,-104.6763197,1481.8,170.4,29,1.9,120.46,25.00,0.00,0,0,0.01,0.05,0.00,0.05,1.74,83.8,3704,29,86.00,80.00,1.00,30.00,7.50,0.00,0.00,0.00,3.10,0.00,206.80,213.70,206.80,220.60
19.840,0,38.2987536,-104.6763190,1481.8,170.3,29,1.9,120.78,25.00,0.00,0,0,0.04,-0.02,0.02,0.06,0.36,83.8,3693,29,86.00,80.00,1.00,30.00,7.50,0.00,0.00,0.00,2.90,0.00,206.80,213.70,206.80,220.60
19.880,0,38.2987507,-104.6763184,1481.8,170.2,29,1.9,121.10,25.00,0.00,0,0,0.05,-0.03,0.03,0.07,0.11,83.8,3678,29,86.00,80.00,1.00,30.00,7.50,0.00,0.00,0.00,2.90,0.00,206.80,213.70,206.80,220.60
19.920,0,38.2987478,-104.6763178,1481.8,170.2,29,1.9,121.42,25.00,0.00,0,0,0.03,-0.02,0.02,0.04,0.26,83.8,3655,29,86.00,80.00,1.00,30.00,7.50,0.00,0.00,0.00,2.90,0.00,206.80,213.70,206.80,220.60
19.960,0,38.2987450,-104.6763172,1481.8,170.4,29,1.9,121.74,25.00,0.00,0,0,0.01,0.02,-0.00,0.04,2.02,83.8,3632,29,86.00,80.00,1.00,30.00,7.50,0.00,0.00,0.00,3.60,0.00,206.80,213.70,206.80,220.60
20.000,0,38.2987422,-104.6763166,1481.8,170.2,29,1.9,122.07,25.00,0.00,0,0,0.03,0.04,-0.01,0.05,1.44,83.8,3610,29,86.00,80.00,1.00,30.00,7.50,0.00,0.00,0.00,3.60,0.00,206.80,213.70,206.80,220.60
20.040,0,38.2987393,-104.6763160,1481.8,170.0,29,1.9,122.38,25.00,0.00,0,0,0.06,0.05,-0.01,0.07,0.73,83.8,3590,29,86.00,80.00,1.00,30.00,7.50,0.00,0.00,0.00,4.40,0.00,206.80,213.70,206.80,220.60
20.080,0,38.2987366,-104.6763153,1481.8,169.8,29,1.9,122.70,25.00,0.00,0,0,0.08,0.03,-0.01,0.09,0.25,83.8,3572,29,86.00,80.00,1.00,30.00,7.50,0.00,0.00,0.00,4.40,0.00,206.80,213.70,206.80,220.60
20.120,0,38.2987337,-104.6763147,1481.8,169.9,28,1.9,123.01,25.00,0.00,0,0,0.09,0.01,-0.03,0.09,0.90,83.8,3574,28,86.00,80.00,1.00,30.00,7.50,0.00,0.00,0.00,4.40,0.00,206.80,213.70,206.80,220.60
20.160,0,38.2987309,-104.6763141,1481.8,170.1,28,1.9,123.33,25.00,0.00,0,0,0.10,-0.00,-0.03,0.11,0.79,83.8,3574,28,86.00,80.00,1.00,30.00,7.50,0.00,0.00,0.00,4.30,0.00,206.80,213.70,206.80,220.60
20.200,0,38.2987282,-104.6763135,1481.8,169.9,28,1.9,123.64,25.00,0.00,0,0,0.13,-0.01,0.00,0.13,0.80,83.8,3570,28,86.00,80.00,1.00,30.00,7.50,0.00,0.00,0.00,4.30,0.00,206.80,213.70,206.80,220.60
20.240,0,38.2987253,-104.6763129,1481.8,169.7,28,1.9,123.96,25.00,0.00,0,0,0.14,-0.00,0.02,0.14,0.83,83.8,3561,28,86.00,80.00,1.00,30.00,7.50,0.00,0.00,0.00,4.30,0.00,206.80,213.70,206.80,220.60
20.280,0,38.2987226,-104.6763122,1481.8,169.4,28,1.9,124.27,25.00,0.00,0,0,0.13,0.01,0.02,0.14,1.01,83.8,3548,28,86.00,80.00,1.00,30.00,7.50,0.00,0.00,0.00,4.30,0.00,206.80,213.70,206.80,220.60
20.320,0,38.2987199,-104.6763116,1481.8,169.6,28,1.9,124.58,25.00,0.00,0,0,0.12,0.02,0.02,0.12,1.25,83.8,3532,28,86.00,80.00,1.00,30.00,7.50,0.00,0.00,0.00,4.30,0.00,206.80,213.70,206.80,220.60
20.360,0,38.2987172,-104.6763110,1481.8,169.7,28,1.9,124.88,25.00,0.00,0,0,0.13,0.01,0.03,0.13,1.25,83.8,3511,28,86.00,80.00,1.00,30.00,7.50,0.00,0.00,0.00,4.30,0.00,206.80,213.70,206.80,220.60
20.400,0,38.2987145,-104.6763104,1481.8,169.6,28,1.9,125.19,25.00,0.00,0,0,0.14,0.01,0.01,0.14,0.64,83.8,3490,28,86.00,80.00,1.00,30.00,7.50,0.00,0.00,0.00,4.30,0.00,206.80,213.70,206.80,220.60
20.440,0,38.2987118,-104.6763098,1481.8,169.7,27,1.9,125.49,25.00,0.00,0,0,0.13,-0.02,0.00,0.13,0.43,83.8,3470,27,86.00,80.00,1.00,30.00,7.50,0.00,0.00,0.00,4.30,0.00,206.80,213.70,206.80,220.60
20.480,0,38.2987091,-104.6763092,1481.8,169.7,27,1.9,125.79,25.00,0.00,0,0,0.12,-0.00,0.00,0.12,1.26,83.8,3450,27,86.00,80.00,1.00,30.00,7.50,0.00,0.00,0.00,4.30,0.00,206.80,213.70,206.80,220.60
20.520,0,38.2987064,-104.6763085,1481.8,169.6,27,1.9,126.10,25.00,0.00,0,0,0.12,0.00,-0.03,0.12,1.00,83.8,3433,27,86.00,80.00,1.00,30.00,7.50,0.00,0.00,0.00,4.30,0.00,206.80,213.70,206.80,220.60
20.560,0,38.2987038,-104.6763079,1481.8,169.5,27,1.9,126.39,25.00,0.00,0,0,0.11,-0.00,-0.03,0.11,0.81,83.8,3416,27,86.00,80.00,1.00,30.00,7.50,0.00,0.00,0.00,4.40,0.00,206.80,213.70,206.80,220.60
20.600,0,38.2987011,-104.6763073,1481.8,169.5,27,1.9,126.70,25.00,0.00,0,0,0.12,-0.00,-0.01,0.12,0.51,83.8,3400,27,86.00,80.00,1.00,30.00,7.50,0.00,0.00,0.00,4.40,0.00,206.80,213.70,206.80,220.60
20.640,0,38.2986985,-104.6763067,1481.8,169.5,27,1.9,126.99,25.00,0.00,0,0,0.13,-0.01,0.01,0.13,0.80,83.8,3381,27,86.00,80.00,1.00,30.00,7.50,0.00,0.00,0.00,4.20,0.00,206.80,213.70,206.80,220.60
20.680,0,38.2986959,-104.6763061,1481.8,169.4,27,1.9,127.28,25.00,0.00,0,0,0.11,-0.01,0.02,0.11,0.89,83.8,3362,27,86.00,80.00,1.00,30.00,7.50,0.00,0.00,0.00,4.20,0.00,206.80,213.70,206.80,220.60
20.720,0,38.2986933,-104.6763055,1481.8,169.3,26,1.9,127.58,25.00,0.00,0,0,0.12,0.00,0.03,0.13,1.14,83.8,3341,26,86.00,80.00,1.00,30.00,7.50,0.00,0.00,0.00,4.20,0.00,206.80,213.70,206.80,220.60
20.760,0,38.2986907,-104.6763049,1481.8,169.4,26,1.9,127.87,25.00,0.00,0,0,0.12,0.03,0.02,0.13,0.89,83.8,3333,26,86.00,80.00,1.00,30.00,7.50,0.00,0.00,0.00,4.20,0.00,206.80,213.70,206.80,220.60
20.800,0,38.2986882,-104.6763043,1481.8,169.6,26,1.9,128.15,25.00,0.00,0,0,0.10,-0.01,-0.01,0.10,0.84,83.8,3341,26,86.00,80.00,1.00,30.00,7.50,0.00,0.00,0.00,4.20,0.00,206.80,213.70,206.80,220.60
20.840,0,38.2986856,-104.6763038,1481.7,169.8,26,1.9,128.44,25.00,0.00,0,0,0.08,0.04,0.01,0.09,1.16,83.8,3360,26,86.00,80.00,1.00,30.00,7.50,0.00,0.00,0.00,4.20,0.00,206.80,213.70,206.80,220.60
20.880,0,38.2986830,-104.6763032,1481.7,169.4,26,1.9,128.74,25.00,0.00,0,0,0.07,0.02,0.01,0.07,0.71,83.8,3363,26,86.00,80.00,1.00,30.00,7.50,0.00,0.00,0.00,4.20,0.00,206.80,213.70,206.80,220.60
20.920,0,38.2986805,-104.6763026,1481.7,169.4,26,1.9,129.02,25.00,0.00,0,0,0.05,0.01,-0.02,0.05,0.99,83.8,3353,26,86.00,80.00,1.00,30.00,7.50,0.00,0.00,0.00,4.20,0.00,206.80,213.70,206.80,220.60
20.960,0,38.2986780,-104.6763019,1481.7,169.0,26,1.9,129.30,25.00,0.00,0,0,0.04,-0.03,-0.02,0.06,0.60,83.8,3341,26,86.00,80.00,1.00,30.00,7.50,0.00,0.00,0.00,4.20,0.00,206.80,213.70,206.80,220.60
21.000,0,38.2986755,-104.6763013,1481.7,168.8,26,1.9,129.59,25.00,0.00,0,0,0.04,-0.01,0.00,0.05,1.08,83.8,3326,26,86.00,80.00,1.00,30.00,7.50,0.00,0.00,0.00,4.20,0.00,206.80,213.70,206.80,220.60
21.040,0,38.2986729,-104.6763007,1481.7,168.8,26,1.9,129.88,25.00,0.00,0,0,0.04,-0.00,0.01,0.04,0.54,83.8,3306,26,86.00,80.00,1.00,30.00,7.50,0.00,0.00,0.00,4.20,0.00,206.80,213.70,206.80,220.60
21.080,0,38.2986704,-104.6763001,1481.7,168.9,26,1.9,130.16,25.00,0.00,0,0,0.02,0.01,-0.00,0.02,2.00,83.8,3288,26,86.00,80.00,1.00,30.00,7.50,0.00,0.00,0.00,4.20,0.00,206.80,213.70,206.80,220.60
21.120,0,38.2986679,-104.6762994,1481.7,168.8,26,2.0,130.45,25.00,0.00,0,0,0.02,0.01,0.01,0.03,1.18,83.8,3267,26,86.00,80.00,1.00,30.00,7.50,0.00,0.00,0.00,4.20,0.00,206.80,213.70,206.80,220.60
21.160,0,38.2986654,-104.6762988,1481.7,168.9,26,2.1,130.73,25.00,0.00,0,0,0.04,-0.00,0.02,0.05,0.92,83.8,3240,25,86.00,80.00,1.00,30.00,7.50,0.00,0.00,0.00,4.20,0.00,206.80,213.70,206.80,220.60
21.200,0,38.2986628,-104.6762982,1481.7,169.0,26,2.1,131.02,25.00,0.00,0,0,0.04,-0.00,0.02,0.05,0.51,83.8,3211,25,86.00,80.00,1.00,30.00,7.50,0.00,0.00,0.00,4.20,0.00,206.80,213.70,206.80,220.60
21.240,0,38.2986603,-104.6762976,1481.7,168.8,25,2.1,131.30,25.00,0.00,0,0,0.06,-0.00,0.02,0.06,1.00,83.8,3188,25,86.00,80.00,1.00,30.00,7.50,0.00,0.00,0.00,4.20,0.00,206.80,213.70,206.80,220.60
21.280,0,38.2986578,-104.6762970,1481.7,168.8,25,2.0,131.59,25.00,0.00,0,0,0.09,-0.01,0.02,0.09,0.69,83.8,3177,25,86.00,80.00,1.00,30.00,7.50,0.00,0.00,0.00,4.20,0.00,206.80,213.70,206.80,220.60
21.320,0,38.2986553,-104.6762964,1481.7,168.7,25,1.9,131.87,25.00,0.00,0,0,0.12,-0.02,0.02,0.13,0.15,83.8,3175,25,86.00,80.00,1.00,30.00,7.50,0.00,0.00,0.00,4.20,0.00,206.80,213.70,206.80,220.60
21.360,0,38.2986528,-104.6762957,1481.7,168.6,25,1.9,132.15,25.00,0.00,0,0,0.12,-0.01,-0.01,0.13,0.34,83.8,3177,25,86.00,80.00,1.00,30.00,7.50,0.00,0.00,0.00,3.90,0.00,206.80,213.70,206.80,220.60
21.400,0,38.2986503,-104.6762951,1481.7,168.6,25,1.9,132.43,25.00,0.00,0,0,0.11,0.00,-0.03,0.11,0.60,83.8,3182,25,86.00,80.00,1.00,30.00,7.50,0.00,0.00,0.00,3.90,0.00,206.80,213.70,206.80,220.60
21.440,0,38.2986479,-104.6762945,1481.7,168.6,25,2.1,132.71,25.00,0.00,0,0,0.12,-0.01,-0.01,0.12,0.36,83.8,3191,25,86.00,80.00,1.00,30.00,7.50,0.00,0.00,0.00,2.90,0.00,206.80,213.70,206.80,220.60
21.480,0,38.2986454,-104.6762939,1481.7,168.7,25,2.1,132.99,25.00,0.00,0,0,0.13,-0.04,0.02,0.14,-0.30,83.8,3195,25,86.00,80.00,1.00,30.00,7.50,0.00,0.00,0.00,1.70,0.00,206.80,213.70,206.80,220.60
21.520,0,38.2986430,-104.6762933,1481.7,168.9,25,2.1,133.26,25.00,0.00,0,0,0.11,-0.03,0.02,0.12,-0.18,83.8,3181,25,86.00,80.00,1.00,30.00,7.50,0.00,0.00,0.00,1.70,0.00,206.80,213.70,206.80,220.60
21.560,0,38.2986406,-104.6762928,1481.7,168.9,25,2.1,133.53,25.00,0.00,0,0,0.07,-0.01,0.02,0.07,0.49,83.8,3159,25,86.00,80.00,1.00,30.00,7.50,0.00,0.00,0.00,0.40,0.00,206.80,213.70,206.80,220.60
21.600,0,38.2986382,-104.6762922,1481.7,168.9,25,2.0,133.80,25.00,0.00,0,0,0.05,-0.03,0.00,0.05,0.26,83.8,3134,25,86.00,80.00,1.00,30.00,7.50,0.00,0.00,0.00,-0.60,0.00,206.80,213.70,206.80,220.60
21.640,0,38.2986358,-104.6762916,1481.7,168.9,24,1.9,134.07,25.00,0.00,0,0,0.07,-0.03,0.01,0.07,-0.65,83.8,3103,24,86.00,80.00,1.00,30.00,7.50,0.00,0.00,0.00,-0.60,0.00,206.80,213.70,206.80,220.60
21.680,0,38.2986333,-104.6762910,1481.6,168.9,24,1.9,134.35,25.00,0.00,0,0,0.07,-0.03,0.00,0.07,-0.90,83.8,3081,24,86.00,80.00,1.00,30.00,7.50,0.00,0.00,0.00,-1.40,0.00,206.80,213.70,206.80,220.60
21.720,0,38.2986309,-104.6762904,1481.6,168.9,24,1.9,134.62,25.00,0.00,0,0,0.08,-0.02,0.01,0.09,-0.27,83.8,3062,24,86.00,80.00,1.00,30.00,7.50,0.00,0.00,0.00,-1.40,0.00,206.80,213.70,206.80,220.60
21.760,0,38.2986286,-104.6762898,1481.6,168.8,24,1.9,134.89,25.00,0.00,0,0,0.10,-0.00,0.00,0.10,-0.31,83.8,3040,24,86.00,80.00,1.00,30.00,7.50,0.00,0.00,0.00,-1.40,0.00,206.80,213.70,206.80,220.60
21.800,0,38.2986262,-104.6762893,1481.6,168.9,24,1.9,135.16,25.00,0.00,0,0,0.15,-0.02,0.03,0.16,-1.28,83.8,3021,24,86.00,80.00,1.00,30.00,7.50,0.00,0.00,0.00,-2.70,0.00,206.80,213.70,206.80,220.60
21.840,0,38.2986238,-104.6762887,1481.6,169.0,24,1.9,135.43,25.00,0.00,0,0,0.15,-0.03,0.03,0.15,-0.59,83.8,3004,24,86.00,80.00,1.00,30.00,7.50,0.00,0.00,0.00,-3.20,0.00,206.80,213.70,206.80,220.60
21.880,0,38.2986214,-104.6762882,1481.6,169.2,24,1.9,135.70,25.00,0.00,0,0,0.13,-0.01,-0.02,0.13,0.00,83.8,2997,24,86.00,80.00,1.00,30.00,7.50,0.00,0.00,0.00,-3.20,0.00,206.80,213.70,206.80,220.60
21.920,0,38.2986191,-104.6762876,1481.6,169.3,24,1.9,135.96,25.00,0.00,0,0,0.13,0.00,0.00,0.13,-0.18,83.8,2991,24,86.00,80.00,1.00,30.00,7.50,0.00,0.00,0.00,-3.50,0.00,206.80,213.70,206.80,220.60
21.960,0,38.2986168,-104.6762870,1481.6,169.1,24,1.9,136.22,25.00,0.00,0,0,0.15,-0.02,0.01,0.15,-0.90,83.8,2984,24,86.00,80.00,1.00,30.00,7.50,0.00,0.00,0.00,-3.90,0.00,206.80,213.70,206.80,220.60
22.000,0,38.2986145,-104.6762865,1481.6,169.0,23,1.9,136.48,25.00,0.00,0,0,0.13,-0.02,0.01,0.13,-0.81,83.8,2974,23,86.00,80.00,1.00,30.00,7.50,0.00,0.00,0.00,-3.90,0.00,206.80,213.70,206.80,220.60
22.040,0,38.2986122,-104.6762860,1481.6,169.1,23,2.0,136.73,25.00,0.00,0,0,0.11,0.00,-0.01,0.11,-0.38,83.8,2958,23,86.00,80.00,1.00,30.00,7.50,0.00,0.00,0.00,-4.20,0.00,206.80,213.70,206.80,220.60
22.080,0,38.2986100,-104.6762855,1481.6,169.2,23,2.0,136.98,25.00,0.00,0,0,0.09,-0.03,-0.01,0.09,-0.95,83.8,2936,23,86.00,80.00,1.00,30.00,7.50,0.00,0.00,0.00,-4.20,0.00,206.80,213.70,206.80,220.60
22.120,0,38.2986077,-104.6762849,1481.6,169.3,23,2.0,137.24,25.00,0.00,0,0,0.09,-0.05,0.01,0.11,-0.31,83.8,2909,23,86.00,80.00,1.00,30.00,7.50,0.00,0.00,0.00,-4.70,0.00,206.80,213.70,206.80,220.60
22.160,0,38.2986055,-104.6762844,1481.6,169.4,23,2.0,137.49,25.00,0.00,0,0,0.10,-0.00,0.01,0.11,-0.53,83.8,2881,23,86.00,80.00,1.00,30.00,7.50,0.00,0.00,0.00,-5.30,0.00,206.80,213.70,206.80,220.60
22.200,0,38.2986032,-104.6762839,1481.6,169.3,23,2.0,137.75,25.00,0.00,0,0,0.10,-0.03,0.01,0.11,-1.60,83.8,2852,23,86.00,80.00,1.00,30.00,7.50,0.00,0.00,0.00,-5.30,0.00,206.80,213.70,206.80,220.60
22.240,0,38.2986010,-104.6762834,1481.6,169.2,23,2.0,138.00,25.00,0.00,0,0,0.10,-0.05,0.01,0.11,-1.04,83.8,2838,22,86.00,80.00,1.00,30.00,7.50,0.00,0.00,0.00,-5.70,0.00,206.80,213.70,206.80,220.60
22.280,0,38.2985988,-104.6762829,1481.6,169.3,22,2.0,138.25,25.00,0.00,0,0,0.12,-0.04,0.02,0.13,-0.72,83.8,2826,22,86.00,80.00,1.00,30.00,7.50,0.00,0.00,0.00,-6.00,0.00,206.80,213.70,206.80,220.60
22.320,0,38.2985966,-104.6762824,1481.6,169.5,22,2.0,138.49,25.00,0.00,0,0,0.13,-0.02,0.03,0.14,-0.86,83.8,2813,22,86.00,80.00,1.00,30.00,7.50,0.00,0.00,0.00,-6.00,0.00,206.80,213.70,206.80,220.60
22.360,0,38.2985944,-104.6762819,1481.6,169.5,22,2.0,138.74,25.00,0.00,0,0,0.11,-0.01,0.01,0.11,-0.82,83.8,2827,22,86.00,80.00,1.00,30.00,7.50,0.00,0.00,0.00,-6.50,0.00,206.80,213.70,206.80,220.60
22.400,0,38.2985922,-104.6762815,1481.6,169.6,22,2.0,138.99,25.00,0.00,0,0,0.08,-0.03,0.00,0.09,-1.05,83.8,2842,22,86.00,80.00,1.00,30.00,7.50,0.00,0.00,0.00,-7.50,0.00,206.80,213.70,206.80,220.60
22.440,0,38.2985901,-104.6762810,1481.6,169.8,22,2.0,139.23,25.00,0.00,0,0,0.08,-0.02,0.02,0.09,-1.49,83.8,2851,22,86.00,80.00,1.00,30.00,7.50,0.00,0.00,0.00,-7.50,0.00,206.80,213.70,206.80,220.60
22.480,0,38.2985880,-104.6762805,1481.6,169.9,22,2.0,139.46,25.00,0.00,0,0,0.07,-0.02,0.01,0.07,-2.20,83.8,2845,22,86.00,80.00,1.00,30.00,7.50,0.00,0.00,0.00,-8.80,0.00,206.80,213.70,206.80,220.60
22.520,0,38.2985858,-104.6762800,1481.6,169.9,22,2.1,139.71,25.00,0.00,0,0,0.03,-0.03,-0.01,0.05,-1.81,83.8,2837,22,86.00,80.00,1.00,30.00,7.50,0.00,0.00,0.00,-10.80,0.00,206.80,213.70,206.80,220.60
22.560,0,38.2985836,-104.6762796,1481.6,169.8,22,2.0,139.96,25.00,0.00,0,0,0.01,-0.04,-0.01,0.05,-2.01,83.8,2828,22,86.00,80.00,1.00,30.00,7.50,0.00,0.00,0.00,-10.80,0.00,206.80,213.70,206.80,220.60
22.600,0,38.2985815,-104.6762791,1481.6,169.8,22,2.0,140.20,25.00,0.00,0,0,0.03,-0.05,0.01,0.06,-2.53,83.8,2813,22,86.00,80.00,1.00,30.00,7.50,0.00,0.00,0.00,-10.80,0.00,206.80,213.70,206.80,220.60
22.640,0,38.2985793,-104.6762787,1481.6,169.9,22,2.0,140.44,25.00,0.00,0,0,0.04,-0.08,0.02,0.09,-3.14,83.8,2793,22,86.00,80.00,1.00,30.00,7.50,0.00,0.00,0.00,-15.90,0.00,206.80,213.70,206.80,220.60
22.680,0,38.2985772,-104.6762783,1481.5,170.2,22,2.0,140.68,25.00,0.00,0,0,0.02,-0.11,0.01,0.11,-3.58,83.8,2768,22,86.00,80.00,1.00,30.00,7.50,0.00,0.00,0.00,-15.90,0.00,206.80,213.70,206.80,220.60
22.720,0,38.2985750,-104.6762779,1481.5,170.6,22,2.0,140.92,25.00,0.00,0,0,0.02,-0.10,0.01,0.11,-3.81,83.8,2743,21,86.00,80.00,1.00,30.00,7.50,0.00,0.00,0.00,-21.80,0.00,206.80,213.70,206.80,220.60
22.760,0,38.2985729,-104.6762774,1481.5,170.6,22,2.0,141.16,25.00,0.00,0,0,0.03,-0.10,0.01,0.11,-4.29,83.8,2719,21,86.00,80.00,1.00,30.00,7.50,0.00,0.00,0.00,-27.00,0.00,206.80,213.70,206.80,220.60
22.800,0,38.2985707,-104.6762770,1481.5,170.6,22,2.0,141.41,25.00,0.00,0,0,0.04,-0.09,0.01,0.10,-5.42,83.8,2695,21,86.00,80.00,1.00,30.00,7.50,0.00,0.00,0.00,-27.00,0.00,206.80,213.70,206.80,220.60
22.840,0,38.2985686,-104.6762766,1481.5,171.0,22,2.0,141.65,25.00,0.00,0,0,0.04,-0.11,0.00,0.12,-6.07,83.8,2666,21,86.00,80.00,1.00,30.00,7.50,0.00,0.00,0.00,-27.00,0.00,206.80,213.70,206.80,220.60
22.880,0,38.2985664,-104.6762763,1481.5,171.7,22,2.0,141.89,25.00,0.00,0,0,0.04,-0.11,-0.01,0.12,-6.20,83.8,2642,21,86.00,80.00,1.00,30.00,7.50,0.00,0.00,0.00,-36.40,0.00,206.80,213.70,206.80,220.60
22.920,0,38.2985643,-104.6762760,1481.5,172.2,22,2.1,142.13,25.00,0.00,0,0,0.10,-0.12,0.01,0.15,-7.16,83.8,2625,21,86.00,80.00,1.00,30.00,7.50,0.06,0.00,0.00,-44.10,0.00,206.80,213.70,206.80,220.60
22.960,0,38.2985621,-104.6762757,1481.5,172.6,22,1.9,142.37,25.00,0.00,0,0,0.16,-0.14,0.04,0.22,-8.24,83.8,2636,21,86.00,80.00,1.00,30.00,7.50,0.69,0.00,0.00,-44.10,0.00,206.80,213.70,206.80,220.60
23.000,0,38.2985600,-104.6762754,1481.5,172.7,21,1.9,142.60,25.00,0.00,0,0,0.17,-0.18,0.02,0.25,-9.37,83.8,2653,21,86.00,80.00,1.00,30.00,7.50,1.00,0.00,0.00,-58.30,0.00,206.80,213.70,206.80,220.60
23.040,0,38.2985579,-104.6762751,1481.5,173.1,21,1.9,142.84,25.00,0.00,0,0,0.15,-0.22,0.01,0.27,-10.48,83.8,2677,21,86.00,80.00,1.00,30.00,7.50,1.00,0.00,0.00,-58.30,0.00,206.80,213.70,206.80,220.60
23.080,0,38.2985558,-104.6762749,1481.5,173.9,21,1.9,143.07,25.00,0.00,0,0,0.12,-0.21,-0.01,0.25,-11.22,83.8,2682,21,86.00,80.00,1.00,30.00,7.50,0.37,0.00,0.00,-69.10,0.00,206.80,213.70,206.80,220.60
23.120,0,38.2985537,-104.6762747,1481.5,174.6,21,1.9,143.31,25.00,0.00,0,0,0.11,-0.19,0.01,0.22,-12.46,83.8,2675,21,86.00,80.00,1.00,30.00,7.50,0.00,0.00,0.00,-79.40,0.00,206.80,213.70,206.80,220.60
23.160,0,38.2985517,-104.6762745,1481.5,175.2,21,1.9,143.54,25.00,0.00,0,0,0.08,-0.21,0.02,0.23,-13.58,83.8,2659,21,86.00,80.00,1.00,30.00,7.50,0.00,0.00,0.00,-79.40,0.00,206.80,213.70,206.80,220.60
23.200,0,38.2985496,-104.6762743,1481.5,175.5,21,1.9,143.76,25.00,0.00,0,0,0.04,-0.20,-0.00,0.21,-13.41,83.8,2637,20,86.00,80.00,1.00,30.00,7.50,0.00,0.00,0.00,-87.60,0.00,206.80,213.70,206.80,220.60
23.240,0,38.2985476,-104.6762742,1481.5,176.0,20,1.8,143.98,25.00,0.00,0,0,0.02,-0.17,0.01,0.18,-13.16,83.8,2615,20,86.00,80.00,1.00,30.00,7.50,0.00,0.00,0.00,-93.50,0.00,206.80,213.70,206.80,220.60
23.280,0,38.2985455,-104.6762741,1481.5,176.8,21,1.8,144.22,25.00,0.00,0,0,0.03,-0.19,0.01,0.19,-14.16,83.8,2593,20,86.00,80.00,1.00,30.00,7.50,0.00,0.00,0.00,-93.50,0.00,206.80,213.70,206.80,220.60
23.320,0,38.2985434,-104.6762741,1481.5,177.6,21,2.2,144.45,25.00,0.00,0,0,0.05,-0.18,0.01,0.18,-14.77,83.8,2577,20,86.00,80.00,1.00,30.00,7.50,0.00,0.00,0.00,-98.50,0.00,206.80,213.70,206.80,220.60
23.360,0,38.2985413,-104.6762741,1481.5,178.5,21,2.3,144.68,25.00,0.00,0,0,0.08,-0.22,0.04,0.24,-15.60,83.8,2561,20,86.00,80.10,1.00,30.00,7.50,0.00,0.00,0.00,-103.10,0.00,206.80,213.70,206.80,220.60
23.400,0,38.2985392,-104.6762741,1481.5,178.9,21,2.4,144.92,25.00,0.00,0,0,0.05,-0.16,0.01,0.17,-15.51,83.8,2537,20,86.00,80.69,1.00,30.00,7.50,0.00,0.00,0.00,-103.10,0.00,206.80,213.70,206.80,220.60
23.440,0,38.2985372,-104.6762741,1481.5,179.2,21,2.2,145.14,25.00,0.00,0,0,0.04,-0.16,-0.02,0.17,-15.89,83.8,2522,20,86.00,81.00,1.00,30.00,7.50,0.00,0.00,0.00,-108.00,0.00,206.80,213.70,206.80,220.60
23.480,0,38.2985350,-104.6762741,1481.5,179.3,21,2.3,145.38,25.00,0.00,0,0,0.06,-0.18,-0.02,0.19,-16.41,83.8,2517,20,86.00,81.00,1.00,30.00,7.50,0.00,0.00,0.00,-108.00,0.00,206.80,213.70,206.80,220.60
23.520,0,38.2985331,-104.6762742,1481.5,179.9,21,2.5,145.60,25.00,0.00,0,0,0.10,-0.20,0.01,0.22,-17.33,83.8,2525,20,86.00,81.00,1.00,30.00,7.50,0.48,0.00,0.00,-114.50,0.00,206.80,213.70,206.80,220.60
23.560,0,38.2985311,-104.6762743,1481.5,180.8,20,2.8,145.83,25.00,0.00,0,0,0.09,-0.21,0.02,0.23,-17.49,83.8,2536,20,86.12,81.00,1.00,30.00,7.50,1.00,0.00,0.00,-119.40,0.00,206.80,213.70,206.80,220.60
23.600,0,38.2985290,-104.6762745,1481.5,182.0,20,2.9,146.05,25.00,0.00,0,0,0.07,-0.20,0.02,0.21,-17.16,83.8,2544,20,86.78,81.00,1.00,30.00,7.50,1.00,0.00,0.00,-119.40,0.00,206.80,213.70,206.80,220.60
23.640,0,38.2985271,-104.6762747,1481.5,182.7,20,3.0,146.27,25.00,0.00,0,0,0.06,-0.17,0.01,0.18,-17.43,83.8,2544,20,87.00,81.00,1.00,30.00,7.50,0.53,0.00,0.00,-123.40,0.00,206.80,213.70,206.80,220.60
23.680,0,38.2985251,-104.6762749,1481.5,183.4,20,3.0,146.50,25.00,0.00,0,0,0.05,-0.18,0.01,0.19,-17.97,83.8,2538,20,87.00,81.00,1.00,30.00,7.50,0.00,0.00,0.00,-125.80,0.00,206.80,213.70,206.80,220.60
23.720,0,38.2985231,-104.6762753,1481.5,184.4,20,2.5,146.72,25.00,0.00,0,0,0.06,-0.20,0.02,0.21,-17.65,83.8,2529,20,87.00,81.00,1.00,30.00,7.50,0.00,0.00,0.00,-125.80,0.00,206.80,213.70,206.80,220.60
23.760,0,38.2985211,-104.6762757,1481.4,185.4,20,2.4,146.93,25.00,0.00,0,0,0.05,-0.18,0.00,0.19,-17.21,83.8,2515,20,87.00,81.00,1.00,30.00,7.50,0.00,0.00,0.00,-127.10,0.00,206.80,213.70,206.80,220.60
23.800,0,38.2985191,-104.6762760,1481.4,186.1,20,2.4,147.16,25.00,0.00,0,0,0.05,-0.18,-0.01,0.19,-17.58,83.8,2500,19,87.00,81.00,1.00,30.00,7.50,0.00,0.00,0.00,-127.60,0.00,206.80,213.70,206.80,220.60
23.840,0,38.2985171,-104.6762765,1481.4,186.7,20,2.4,147.39,25.00,0.00,0,0,0.03,-0.18,-0.02,0.19,-17.47,83.8,2484,19,87.00,81.00,1.00,30.00,7.50,0.00,0.00,0.00,-127.60,0.00,206.80,213.70,206.80,220.60
23.880,0,38.2985152,-104.6762769,1481.4,187.6,20,2.4,147.61,25.00,0.00,0,0,0.04,-0.16,-0.02,0.17,-17.62,83.8,2463,19,87.00,81.00,1.00,30.00,7.50,0.00,0.00,0.00,-127.60,0.00,206.80,213.70,206.80,220.60
23.920,0,38.2985131,-104.6762774,1481.4,188.5,20,2.2,147.83,25.00,0.00,0,0,0.08,-0.15,0.04,0.17,-17.50,83.8,2439,19,87.00,81.00,1.00,30.00,7.50,0.00,0.00,0.00,-127.60,0.00,206.80,213.70,206.80,220.60
23.960,0,38.2985112,-104.6762780,1481.4,189.4,20,2.3,148.06,25.00,0.00,0,0,0.08,-0.13,0.05,0.16,-17.80,83.8,2419,19,87.00,81.00,1.00,30.00,7.50,0.60,0.00,0.00,-127.80,0.00,206.80,213.70,206.80,220.60
24.000,0,38.2985092,-104.6762785,1481.4,190.4,20,2.4,148.29,25.00,0.00,0,0,0.07,-0.15,0.02,0.17,-17.89,83.8,2405,19,87.00,81.00,1.00,30.00,7.50,1.00,0.00,0.00,-128.10,0.00,206.80,213.70,206.80,220.60
24.040,0,38.2985073,-104.6762791,1481.4,191.2,20,2.3,148.51,25.00,0.00,0,0,0.08,-0.14,0.00,0.16,-17.70,83.8,2401,19,87.00,81.00,1.00,30.00,7.50,1.00,0.00,0.00,-128.10,0.00,206.80,213.70,206.80,220.60
24.080,0,38.2985053,-104.6762797,1481.4,191.5,20,2.3,148.73,25.00,0.00,0,0,0.11,-0.14,0.00,0.18,-18.26,83.8,2405,19,87.00,81.00,1.00,30.00,7.50,1.00,0.00,0.00,-129.20,0.00,206.80,213.70,206.80,220.60
