Record,Time,Latitude,Longitude,Altitude,KPH,X,Y,Z,Lap,GyroX,GyroY,GyroZ
1,0.000,34.4889022,-80.5974243,147.8,5.46,-0.148,0.017,0.990,0,-2.98,0.49,-1.68
2,0.040,34.4889018,-80.5974241,147.8,5.61,-0.151,0.018,0.990,0,-2.85,0.42,-1.96
3,0.080,34.4889012,-80.5974238,147.8,5.43,-0.153,0.020,0.991,0,-2.75,0.34,-2.22
4,0.120,34.4889008,-80.5974236,147.8,5.52,-0.152,0.020,0.994,0,-2.75,0.29,-2.44
5,0.160,34.4889003,-80.5974234,147.8,5.76,-0.149,0.019,0.997,0,-2.82,0.24,-2.59
6,0.200,34.4888997,-80.5974231,147.8,5.88,-0.148,0.019,1.000,0,-2.93,0.17,-2.72
7,0.240,34.4888991,-80.5974229,147.8,5.98,-0.145,0.021,1.001,0,-3.03,0.10,-2.86
8,0.280,34.4888985,-80.5974227,147.8,6.02,-0.142,0.023,0.999,0,-3.02,0.06,-3.06
9,0.320,34.4888980,-80.5974224,147.8,6.03,-0.144,0.027,0.993,0,-2.89,0.04,-3.35
10,0.360,34.4888974,-80.5974222,147.7,6.12,-0.151,0.031,0.988,0,-2.65,0.04,-3.73
11,0.400,34.4888968,-80.5974220,147.8,6.29,-0.158,0.036,0.984,0,-2.33,0.04,-4.19
12,0.440,34.4888962,-80.5974219,147.7,6.56,-0.166,0.043,0.984,0,-2.03,0.05,-4.72
13,0.480,34.4888955,-80.5974217,147.8,6.64,-0.174,0.050,0.988,0,-1.81,0.04,-5.28
14,0.520,34.4888949,-80.5974213,147.8,6.78,-0.183,0.055,0.991,0,-1.58,0.02,-5.86
15,0.560,34.4888942,-80.5974210,147.8,6.88,-0.190,0.057,0.995,0,-1.37,0.02,-6.44
16,0.600,34.4888936,-80.5974208,147.7,7.05,-0.197,0.058,0.996,0,-1.17,0.00,-7.00
17,0.640,34.4888929,-80.5974207,147.7,7.41,-0.203,0.060,0.990,0,-0.91,-0.09,-7.56
18,0.680,34.4888920,-80.5974205,147.7,7.65,-0.208,0.068,0.982,0,-0.66,-0.21,-8.11
19,0.720,34.4888913,-80.5974201,147.7,7.70,-0.209,0.080,0.978,0,-0.55,-0.33,-8.65
20,0.760,34.4888905,-80.5974200,147.7,7.87,-0.207,0.097,0.976,0,-0.63,-0.37,-9.27
21,0.800,34.4888898,-80.5974198,147.7,7.90,-0.204,0.112,0.978,0,-0.90,-0.29,-9.94
22,0.840,34.4888889,-80.5974196,147.7,8.43,-0.201,0.122,0.984,0,-1.33,-0.09,-10.63
23,0.880,34.4888881,-80.5974195,147.7,8.75,-0.198,0.124,0.988,0,-1.81,0.17,-11.32
24,0.920,34.4888872,-80.5974193,147.7,9.04,-0.198,0.120,0.987,0,-2.14,0.41,-12.07
25,1.000,34.4888855,-80.5974191,147.7,8.95,-0.197,0.115,0.986,0,-2.20,0.48,-12.86
26,1.040,34.4888845,-80.5974189,147.7,9.11,-0.198,0.113,0.987,0,-1.96,0.40,-13.72
27,1.080,34.4888835,-80.5974188,147.7,9.61,-0.198,0.116,0.987,0,-1.53,0.22,-14.57
28,1.120,34.4888825,-80.5974188,147.7,9.99,-0.195,0.124,0.990,0,-1.02,0.00,-15.43
29,1.160,34.4888814,-80.5974186,147.7,10.12,-0.188,0.139,0.998,0,-0.71,-0.10,-16.21
30,1.200,34.4888804,-80.5974186,147.7,10.21,-0.181,0.155,1.008,0,-0.72,-0.01,-16.93
31,1.240,34.4888793,-80.5974186,147.7,10.44,-0.173,0.167,1.017,0,-1.06,0.33,-17.63
32,1.280,34.4888784,-80.5974186,147.7,10.52,-0.169,0.172,1.020,0,-1.54,0.80,-18.31
33,1.320,34.4888772,-80.5974186,147.7,10.55,-0.170,0.170,1.013,0,-2.00,1.24,-18.98
34,1.360,34.4888761,-80.5974186,147.7,11.12,-0.175,0.163,0.998,0,-2.19,1.48,-19.63
35,1.400,34.4888749,-80.5974186,147.7,11.66,-0.180,0.157,0.984,0,-2.11,1.50,-20.25
36,1.440,34.4888737,-80.5974186,147.7,11.67,-0.179,0.158,0.969,0,-1.81,1.35,-20.83
37,1.480,34.4888726,-80.5974186,147.6,11.63,-0.177,0.166,0.965,0,-1.38,1.18,-21.43
38,1.520,34.4888716,-80.5974188,147.6,11.43,-0.173,0.185,0.972,0,-1.13,1.14,-22.13
39,1.560,34.4888704,-80.5974188,147.7,11.51,-0.169,0.202,0.985,0,-1.23,1.23,-22.83
40,1.600,34.4888692,-80.5974191,147.6,12.09,-0.166,0.215,0.994,0,-1.54,1.40,-23.54
41,1.640,34.4888680,-80.5974193,147.7,12.47,-0.167,0.219,1.001,0,-2.05,1.51,-24.24
42,1.680,34.4888667,-80.5974195,147.7,12.92,-0.166,0.213,1.010,0,-2.49,1.58,-24.90
43,1.720,34.4888652,-80.5974198,147.7,13.31,-0.163,0.199,1.009,0,-2.55,1.64,-25.45
44,1.760,34.4888639,-80.5974201,147.7,13.53,-0.162,0.187,1.004,0,-2.21,1.88,-25.92
45,1.800,34.4888626,-80.5974205,147.7,13.37,-0.163,0.180,0.998,0,-1.66,2.25,-26.32
46,1.840,34.4888614,-80.5974208,147.7,13.45,-0.166,0.187,0.990,0,-0.98,2.62,-26.62
47,1.880,34.4888600,-80.5974212,147.7,13.58,-0.171,0.205,0.979,0,-0.65,2.81,-26.90
48,1.920,34.4888586,-80.5974217,147.7,13.90,-0.172,0.223,0.983,0,-0.73,2.58,-27.22
49,2.000,34.4888559,-80.5974227,147.7,14.41,-0.157,0.233,0.988,0,-1.14,2.02,-27.67
50,2.040,34.4888546,-80.5974234,147.7,14.39,-0.127,0.233,0.989,0,-1.50,1.46,-28.15
51,2.080,34.4888533,-80.5974240,147.7,14.18,-0.094,0.226,0.988,0,-1.76,1.03,-28.56
52,2.120,34.4888519,-80.5974247,147.7,14.01,-0.061,0.212,0.987,0,-1.82,0.80,-28.85
53,2.160,34.4888507,-80.5974254,147.7,13.89,-0.035,0.202,0.985,0,-1.68,0.81,-28.95
54,2.200,34.4888494,-80.5974261,147.7,14.17,-0.026,0.199,0.992,0,-1.48,0.94,-28.85
55,2.240,34.4888481,-80.5974267,147.7,14.29,-0.032,0.197,1.005,0,-1.42,0.98,-28.66
56,2.280,34.4888468,-80.5974275,147.7,14.46,-0.046,0.195,1.015,0,-1.38,0.95,-28.47
57,2.320,34.4888455,-80.5974283,147.7,14.64,-0.064,0.193,1.018,0,-1.35,0.85,-28.30
58,2.360,34.4888443,-80.5974291,147.7,14.59,-0.079,0.192,1.007,0,-1.35,0.73,-28.14
59,2.400,34.4888430,-80.5974300,147.7,14.63,-0.088,0.193,0.993,0,-1.45,0.61,-27.95
60,2.440,34.4888418,-80.5974309,147.7,14.39,-0.088,0.194,0.980,0,-1.63,0.51,-27.74
61,2.480,34.4888406,-80.5974318,147.7,14.43,-0.080,0.191,0.978,0,-1.89,0.44,-27.50
62,2.520,34.4888394,-80.5974328,147.7,14.28,-0.066,0.184,0.984,0,-2.10,0.41,-27.21
63,2.560,34.4888382,-80.5974337,147.6,14.43,-0.051,0.169,0.994,0,-2.25,0.45,-26.84
64,2.600,34.4888370,-80.5974346,147.7,14.77,-0.039,0.151,1.003,0,-2.18,0.52,-26.38
65,2.640,34.4888358,-80.5974356,147.7,14.68,-0.036,0.134,1.010,0,-1.95,0.62,-25.77
66,2.680,34.4888345,-80.5974366,147.7,14.81,-0.040,0.118,1.012,0,-1.59,0.70,-25.09
67,2.720,34.4888333,-80.5974376,147.7,14.71,-0.051,0.111,1.009,0,-1.22,0.73,-24.39
68,2.760,34.4888321,-80.5974386,147.6,14.57,-0.065,0.110,1.005,0,-0.91,0.69,-23.69
69,2.800,34.4888310,-80.5974397,147.6,14.54,-0.078,0.113,1.000,0,-0.75,0.69,-22.95
70,2.840,34.4888298,-80.5974408,147.6,14.70,-0.087,0.118,0.993,0,-0.83,0.71,-22.25
71,2.880,34.4888286,-80.5974420,147.6,14.89,-0.091,0.118,0.991,0,-1.06,0.76,-21.53
72,2.920,34.4888275,-80.5974431,147.6,15.19,-0.092,0.111,0.990,0,-1.36,0.79,-20.71
73,3.000,34.4888251,-80.5974455,147.6,14.88,-0.089,0.100,0.988,0,-1.50,0.77,-19.74
74,3.040,34.4888241,-80.5974467,147.6,14.93,-0.084,0.091,0.990,0,-1.65,0.75,-18.75
75,3.080,34.4888230,-80.5974477,147.5,14.81,-0.083,0.083,1.000,0,-1.69,0.79,-17.76
76,3.120,34.4888218,-80.5974490,147.5,14.85,-0.085,0.078,1.005,0,-1.70,0.86,-16.80
77,3.160,34.4888207,-80.5974502,147.5,14.79,-0.094,0.073,1.008,0,-1.72,0.96,-15.94
78,3.200,34.4888196,-80.5974514,147.6,15.03,-0.108,0.066,1.007,0,-1.78,1.04,-15.18
79,3.240,34.4888186,-80.5974527,147.6,15.26,-0.130,0.057,1.002,0,-1.79,1.02,-14.41
80,3.280,34.4888174,-80.5974540,147.6,15.63,-0.151,0.051,0.992,0,-1.80,0.92,-13.60
81,3.320,34.4888163,-80.5974553,147.6,15.47,-0.167,0.048,0.990,0,-1.81,0.78,-12.80
82,3.360,34.4888151,-80.5974565,147.6,15.37,-0.172,0.050,0.987,0,-1.87,0.66,-12.04
83,3.400,34.4888140,-80.5974579,147.6,15.83,-0.172,0.054,0.991,0,-1.95,0.60,-11.36
84,3.440,34.4888129,-80.5974593,147.5,15.89,-0.165,0.061,0.994,0,-2.09,0.60,-10.79
85,3.480,34.4888117,-80.5974606,147.5,16.07,-0.156,0.063,0.994,0,-2.27,0.64,-10.30
86,3.520,34.4888105,-80.5974621,147.5,16.36,-0.154,0.058,0.993,0,-2.37,0.74,-9.84
87,3.560,34.4888095,-80.5974635,147.5,16.35,-0.162,0.048,0.993,0,-2.45,0.87,-9.35
88,3.600,34.4888083,-80.5974649,147.5,16.42,-0.174,0.034,0.991,0,-2.47,0.97,-8.79
89,3.640,34.4888071,-80.5974663,147.5,16.86,-0.188,0.020,0.992,0,-2.41,1.03,-8.15
90,3.680,34.4888059,-80.5974678,147.5,16.97,-0.197,0.012,0.997,0,-2.34,1.03,-7.40
91,3.720,34.4888047,-80.5974693,147.5,17.26,-0.199,0.013,0.997,0,-2.30,0.98,-6.68
92,3.760,34.4888034,-80.5974708,147.5,17.51,-0.194,0.019,0.995,0,-2.25,0.95,-6.05
93,3.800,34.4888022,-80.5974723,147.5,17.33,-0.185,0.029,0.996,0,-2.28,0.96,-5.55
94,3.840,34.4888010,-80.5974738,147.5,17.47,-0.174,0.034,0.992,0,-2.53,1.01,-5.10
95,3.880,34.4887998,-80.5974753,147.5,17.55,-0.169,0.029,0.989,0,-2.85,1.07,-4.66
96,3.920,34.4887984,-80.5974768,147.4,17.68,-0.168,0.011,0.994,0,-3.13,1.14,-4.03
97,4.000,34.4887958,-80.5974798,147.4,17.98,-0.174,-0.006,0.999,0,-3.11,1.24,-3.22
98,4.040,34.4887945,-80.5974814,147.4,18.17,-0.181,-0.019,0.996,0,-3.01,1.30,-2.40
99,4.080,34.4887933,-80.5974829,147.4,18.42,-0.186,-0.019,0.995,0,-2.80,1.32,-1.61
100,4.120,34.4887920,-80.5974845,147.4,18.70,-0.187,-0.012,0.990,0,-2.64,1.29,-0.96
101,4.160,34.4887905,-80.5974861,147.4,18.87,-0.184,0.002,0.986,0,-2.57,1.20,-0.55
102,4.200,34.4887892,-80.5974878,147.4,18.85,-0.177,0.015,0.985,0,-2.77,1.04,-0.34
103,4.240,34.4887879,-80.5974894,147.3,18.94,-0.170,0.020,0.990,0,-2.96,0.91,-0.26
104,4.280,34.4887866,-80.5974911,147.3,19.00,-0.166,0.018,0.996,0,-3.01,0.83,-0.28
105,4.320,34.4887853,-80.5974927,147.3,19.23,-0.166,0.014,1.000,0,-2.90,0.78,-0.36
106,4.360,34.4887839,-80.5974944,147.3,19.33,-0.167,0.012,0.998,0,-2.74,0.74,-0.46
107,4.400,34.4887824,-80.5974960,147.3,19.51,-0.170,0.015,0.997,0,-2.58,0.65,-0.55
108,4.440,34.4887811,-80.5974977,147.3,19.65,-0.168,0.021,0.996,0,-2.51,0.57,-0.61
109,4.480,34.4887797,-80.5974994,147.3,19.59,-0.164,0.026,0.997,0,-2.55,0.55,-0.66
110,4.520,34.4887782,-80.5975011,147.3,19.94,-0.158,0.032,0.999,0,-2.68,0.59,-0.72
111,4.560,34.4887768,-80.5975028,147.3,20.20,-0.149,0.033,1.001,0,-2.83,0.69,-0.79
112,4.600,34.4887755,-80.5975045,147.3,19.83,-0.142,0.032,1.001,0,-2.89,0.84,-0.89
113,4.640,34.4887739,-80.5975063,147.3,20.01,-0.138,0.029,1.002,0,-2.85,1.00,-1.00
114,4.680,34.4887726,-80.5975081,147.3,20.38,-0.136,0.027,1.003,0,-2.76,1.12,-1.13
115,4.720,34.4887711,-80.5975098,147.3,20.35,-0.137,0.028,1.001,0,-2.67,1.21,-1.24
116,4.760,34.4887696,-80.5975116,147.3,20.37,-0.140,0.030,0.996,0,-2.66,1.29,-1.32
117,4.800,34.4887683,-80.5975134,147.3,20.44,-0.143,0.034,0.991,0,-2.70,1.33,-1.37
118,4.840,34.4887667,-80.5975152,147.3,20.48,-0.142,0.036,0.986,0,-2.90,1.28,-1.41
119,4.880,34.4887653,-80.5975171,147.3,20.78,-0.139,0.037,0.984,0,-3.11,1.15,-1.44
120,4.920,34.4887639,-80.5975189,147.3,20.80,-0.132,0.029,0.992,0,-3.13,0.95,-1.47
121,5.000,34.4887609,-80.5975225,147.2,20.87,-0.124,0.024,1.000,0,-2.88,0.80,-1.50
122,5.040,34.4887594,-80.5975243,147.3,20.75,-0.120,0.024,1.003,0,-2.69,0.70,-1.49
123,5.080,34.4887580,-80.5975260,147.3,20.71,-0.118,0.028,1.002,0,-2.51,0.64,-1.46
124,5.120,34.4887566,-80.5975280,147.3,21.00,-0.118,0.035,0.997,0,-2.58,0.62,-1.42
125,5.160,34.4887550,-80.5975299,147.3,21.30,-0.119,0.044,0.991,0,-2.86,0.63,-1.39
126,5.200,34.4887536,-80.5975318,147.2,21.37,-0.117,0.045,0.987,0,-3.24,0.65,-1.39
127,5.240,34.4887520,-80.5975337,147.2,21.33,-0.113,0.037,0.994,0,-3.52,0.71,-1.43
128,5.280,34.4887507,-80.5975355,147.2,21.13,-0.108,0.027,1.003,0,-3.59,0.83,-1.49
129,5.320,34.4887492,-80.5975373,147.2,21.26,-0.108,0.018,1.008,0,-3.40,0.95,-1.54
130,5.360,34.4887477,-80.5975392,147.2,21.25,-0.109,0.014,1.005,0,-3.11,1.02,-1.56
131,5.400,34.4887462,-80.5975411,147.2,21.49,-0.113,0.016,0.998,0,-2.87,1.00,-1.53
132,5.440,34.4887446,-80.5975430,147.2,21.77,-0.117,0.025,0.985,0,-2.88,0.82,-1.46
133,5.480,34.4887431,-80.5975450,147.2,21.74,-0.119,0.032,0.974,0,-3.07,0.60,-1.37
134,5.520,34.4887416,-80.5975469,147.2,21.79,-0.120,0.032,0.976,0,-3.42,0.43,-1.27
135,5.560,34.4887401,-80.5975488,147.2,21.85,-0.120,0.027,0.984,0,-3.75,0.31,-1.16
136,5.600,34.4887385,-80.5975507,147.2,21.77,-0.117,0.014,1.002,0,-3.93,0.30,-1.05
137,5.640,34.4887369,-80.5975526,147.3,21.75,-0.110,0.003,1.025,0,-3.86,0.48,-0.93
138,5.680,34.4887355,-80.5975545,147.3,21.82,-0.107,-0.002,1.039,0,-3.70,0.83,-0.78
139,5.720,34.4887340,-80.5975564,147.3,21.85,-0.107,-0.002,1.036,0,-3.45,1.25,-0.62
140,5.760,34.4887324,-80.5975584,147.3,22.01,-0.111,0.002,1.020,0,-3.30,1.66,-0.46
141,5.800,34.4887308,-80.5975603,147.3,22.09,-0.118,0.009,0.994,0,-3.29,1.91,-0.33
142,5.840,34.4887293,-80.5975623,147.3,22.17,-0.127,0.010,0.972,0,-3.36,2.01,-0.22
143,5.880,34.4887276,-80.5975643,147.3,22.46,-0.133,0.009,0.965,0,-3.42,1.97,-0.13
144,5.920,34.4887262,-80.5975663,147.3,22.50,-0.139,0.003,0.974,0,-3.52,1.93,-0.01
145,6.000,34.4887229,-80.5975702,147.3,22.67,-0.145,-0.008,0.989,0,-3.66,1.73,0.22
146,6.040,34.4887215,-80.5975722,147.3,22.59,-0.152,-0.025,1.002,0,-3.83,1.39,0.61
147,6.080,34.4887198,-80.5975743,147.3,22.81,-0.157,-0.050,1.002,0,-3.97,0.89,1.16
148,6.120,34.4887183,-80.5975762,147.3,22.97,-0.158,-0.079,0.993,0,-4.00,0.31,1.98
149,6.160,34.4887166,-80.5975781,147.3,22.98,-0.156,-0.110,0.985,0,-3.83,-0.20,2.99
150,6.200,34.4887148,-80.5975801,147.3,23.12,-0.149,-0.131,0.980,0,-3.44,-0.38,4.11
151,6.240,34.4887131,-80.5975820,147.3,23.24,-0.143,-0.137,0.982,0,-2.96,-0.21,5.26
152,6.280,34.4887114,-80.5975839,147.3,23.55,-0.140,-0.125,0.987,0,-2.59,0.10,6.23
153,6.320,34.4887097,-80.5975858,147.3,23.53,-0.141,-0.100,0.993,0,-2.46,0.40,6.85
154,6.360,34.4887080,-80.5975877,147.3,23.67,-0.143,-0.068,0.993,0,-2.54,0.53,7.11
155,6.400,34.4887063,-80.5975897,147.3,23.73,-0.146,-0.037,0.993,0,-2.85,0.46,6.99
156,6.440,34.4887045,-80.5975918,147.2,23.75,-0.147,-0.022,0.995,0,-3.22,0.36,6.56
157,6.480,34.4887027,-80.5975937,147.2,23.80,-0.148,-0.020,1.003,0,-3.28,0.49,5.99
158,6.520,34.4887011,-80.5975957,147.2,24.07,-0.149,-0.020,1.006,0,-2.97,0.81,5.35
159,6.560,34.4886993,-80.5975977,147.2,24.27,-0.153,-0.013,1.006,0,-2.50,1.21,4.63
160,6.600,34.4886975,-80.5975997,147.2,24.41,-0.156,0.003,0.998,0,-1.99,1.53,3.86
161,6.640,34.4886957,-80.5976018,147.2,24.49,-0.159,0.030,0.990,0,-1.63,1.62,3.04
162,6.680,34.4886939,-80.5976040,147.2,24.67,-0.159,0.058,0.985,0,-1.70,1.50,2.10
163,6.720,34.4886921,-80.5976060,147.2,24.69,-0.157,0.074,0.990,0,-2.05,1.35,1.18
164,6.760,34.4886903,-80.5976081,147.2,24.75,-0.155,0.076,0.993,0,-2.55,1.29,0.39
165,6.800,34.4886885,-80.5976102,147.2,25.02,-0.159,0.065,0.987,0,-3.06,1.19,-0.20
166,6.840,34.4886867,-80.5976123,147.2,25.09,-0.162,0.042,0.982,0,-3.51,0.93,-0.54
167,6.880,34.4886849,-80.5976145,147.2,25.21,-0.160,0.012,0.979,0,-3.72,0.54,-0.52
168,6.920,34.4886831,-80.5976167,147.2,25.33,-0.152,-0.014,1.000,0,-3.66,0.37,-0.17
169,7.000,34.4886794,-80.5976210,147.2,25.10,-0.143,-0.032,1.018,0,-3.36,0.70,0.43
170,7.040,34.4886775,-80.5976231,147.2,25.34,-0.136,-0.039,1.022,0,-3.00,1.18,1.12
171,7.080,34.4886756,-80.5976251,147.2,25.44,-0.131,-0.031,1.010,0,-2.77,1.65,1.71
172,7.120,34.4886737,-80.5976272,147.3,25.48,-0.132,-0.018,0.977,0,-2.78,1.99,2.13
173,7.160,34.4886717,-80.5976294,147.3,25.90,-0.137,-0.006,0.934,0,-2.90,2.02,2.33
174,7.200,34.4886698,-80.5976316,147.3,25.89,-0.140,0.003,0.911,0,-3.18,1.56,2.29
175,7.240,34.4886680,-80.5976339,147.2,26.08,-0.144,0.006,0.924,0,-3.39,0.89,2.12
176,7.280,34.4886661,-80.5976360,147.2,26.15,-0.148,0.001,0.951,0,-3.34,-0.05,1.88
177,7.320,34.4886642,-80.5976382,147.2,26.19,-0.145,-0.002,0.987,0,-2.96,-1.11,1.62
178,7.360,34.4886622,-80.5976404,147.3,26.25,-0.134,-0.001,1.015,0,-2.49,-2.16,1.36
179,7.400,34.4886602,-80.5976425,147.3,26.34,-0.115,0.004,1.030,0,-1.83,-2.76,1.08
180,7.440,34.4886583,-80.5976449,147.3,26.38,-0.091,0.019,1.033,0,-1.40,-2.63,0.82
181,7.480,34.4886564,-80.5976469,147.2,26.29,-0.072,0.035,1.030,0,-1.40,-1.63,0.56
182,7.520,34.4886546,-80.5976492,147.2,26.00,-0.062,0.047,1.017,0,-1.61,-0.27,0.30
183,7.560,34.4886527,-80.5976514,147.2,26.06,-0.065,0.055,0.998,0,-2.25,1.16,0.10
184,7.600,34.4886508,-80.5976536,147.2,26.20,-0.075,0.046,0.984,0,-3.01,2.27,0.00
185,7.640,34.4886489,-80.5976559,147.2,26.55,-0.088,0.021,0.980,0,-3.28,3.02,0.00
186,7.680,34.4886468,-80.5976581,147.2,26.60,-0.099,-0.006,0.989,0,-2.91,3.34,0.03
187,7.720,34.4886449,-80.5976603,147.2,26.62,-0.109,-0.025,1.004,0,-2.15,3.33,0.11
188,7.760,34.4886430,-80.5976626,147.2,26.45,-0.118,-0.025,1.026,0,-1.29,3.06,0.22
189,7.800,34.4886411,-80.5976648,147.2,26.39,-0.123,-0.004,1.033,0,-0.88,2.55,0.36
190,7.840,34.4886392,-80.5976670,147.2,26.69,-0.122,0.022,1.029,0,-1.12,1.92,0.52
191,7.880,34.4886373,-80.5976693,147.2,26.92,-0.116,0.037,1.014,0,-1.80,1.48,0.68
192,7.920,34.4886352,-80.5976717,147.2,26.80,-0.114,0.037,0.997,0,-2.59,1.22,0.77
193,8.000,34.4886315,-80.5976760,147.2,26.62,-0.110,0.019,0.988,0,-2.69,0.87,0.84
194,8.040,34.4886295,-80.5976784,147.2,27.07,-0.106,0.007,1.000,0,-2.43,0.76,0.86
195,8.080,34.4886276,-80.5976808,147.2,27.21,-0.103,0.005,1.024,0,-2.05,0.94,0.88
196,8.120,34.4886255,-80.5976830,147.2,27.03,-0.103,0.019,1.046,0,-1.90,1.35,0.86
197,8.160,34.4886236,-80.5976852,147.2,27.02,-0.103,0.037,1.052,0,-2.11,1.78,0.81
198,8.200,34.4886217,-80.5976875,147.2,27.04,-0.103,0.049,1.040,0,-2.79,2.25,0.70
199,8.240,34.4886198,-80.5976899,147.2,27.14,-0.105,0.045,1.015,0,-3.44,2.60,0.56
200,8.280,34.4886178,-80.5976923,147.2,27.18,-0.109,0.035,0.987,0,-3.84,2.80,0.44
201,8.320,34.4886159,-80.5976945,147.2,27.29,-0.114,0.021,0.972,0,-3.96,2.82,0.38
202,8.360,34.4886139,-80.5976968,147.2,27.31,-0.121,0.009,0.980,0,-3.76,2.77,0.39
203,8.400,34.4886120,-80.5976991,147.2,27.46,-0.129,0.012,0.999,0,-3.53,2.36,0.39
204,8.440,34.4886100,-80.5977014,147.2,27.39,-0.135,0.020,1.022,0,-3.48,1.77,0.39
205,8.480,34.4886079,-80.5977037,147.2,27.61,-0.136,0.028,1.036,0,-3.57,1.21,0.38
206,8.520,34.4886060,-80.5977061,147.2,27.63,-0.133,0.033,1.033,0,-3.88,0.88,0.36
207,8.560,34.4886040,-80.5977084,147.2,27.84,-0.124,0.031,1.021,0,-4.28,0.88,0.36
208,8.600,34.4886019,-80.5977107,147.2,27.70,-0.116,0.018,1.006,0,-4.46,1.26,0.39
209,8.640,34.4885999,-80.5977131,147.2,27.65,-0.110,0.006,0.993,0,-4.43,1.72,0.43
210,8.680,34.4885980,-80.5977155,147.2,27.72,-0.102,-0.004,0.993,0,-4.28,1.98,0.48
211,8.720,34.4885958,-80.5977177,147.2,27.81,-0.091,-0.010,0.994,0,-3.89,1.96,0.59
212,8.760,34.4885938,-80.5977200,147.2,27.80,-0.081,-0.008,0.996,0,-3.66,1.73,0.74
213,8.800,34.4885919,-80.5977223,147.2,27.55,-0.070,-0.005,1.000,0,-3.64,1.42,0.93
214,8.840,34.4885898,-80.5977246,147.2,27.46,-0.058,-0.006,1.006,0,-3.60,1.13,1.14
215,8.880,34.4885878,-80.5977270,147.2,27.56,-0.046,-0.009,1.010,0,-3.66,0.97,1.34
216,8.920,34.4885859,-80.5977294,147.2,27.62,-0.039,-0.016,1.015,0,-3.59,0.90,1.52
217,9.000,34.4885818,-80.5977339,147.2,27.15,-0.033,-0.018,1.011,0,-3.60,0.96,1.72
218,9.040,34.4885797,-80.5977361,147.2,26.89,-0.029,-0.024,1.005,0,-3.51,1.08,1.92
219,9.080,34.4885779,-80.5977383,147.3,26.97,-0.027,-0.024,0.998,0,-3.40,1.24,2.11
220,9.120,34.4885759,-80.5977405,147.3,26.93,-0.031,-0.031,0.994,0,-3.40,1.31,2.32
221,9.160,34.4885739,-80.5977428,147.3,27.04,-0.037,-0.038,0.994,0,-3.40,1.31,2.57
222,9.200,34.4885719,-80.5977449,147.3,27.03,-0.046,-0.042,1.005,0,-3.37,1.21,2.84
223,9.240,34.4885699,-80.5977472,147.3,26.96,-0.061,-0.047,1.014,0,-3.60,1.14,3.17
224,9.280,34.4885679,-80.5977495,147.3,27.02,-0.078,-0.060,1.020,0,-3.79,1.15,3.59
225,9.320,34.4885659,-80.5977516,147.3,26.97,-0.099,-0.073,1.014,0,-3.85,1.28,4.13
226,9.360,34.4885638,-80.5977538,147.3,27.05,-0.123,-0.089,1.007,0,-3.94,1.39,4.72
227,9.400,34.4885618,-80.5977559,147.3,27.23,-0.149,-0.105,0.999,0,-3.95,1.54,5.42
228,9.440,34.4885597,-80.5977581,147.3,27.44,-0.177,-0.112,0.992,0,-3.86,1.69,6.10
229,9.480,34.4885576,-80.5977603,147.3,27.75,-0.207,-0.114,0.988,0,-3.95,1.86,6.76
230,9.520,34.4885554,-80.5977625,147.3,28.29,-0.239,-0.119,0.992,0,-3.99,2.06,7.32
231,9.560,34.4885532,-80.5977647,147.3,28.40,-0.271,-0.121,0.992,0,-3.83,2.11,7.78
232,9.600,34.4885510,-80.5977670,147.3,28.75,-0.296,-0.129,0.988,0,-3.71,1.94,8.13
233,9.640,34.4885487,-80.5977692,147.3,29.16,-0.312,-0.139,0.980,0,-3.51,1.64,8.50
234,9.680,34.4885463,-80.5977715,147.3,29.60,-0.309,-0.145,0.965,0,-3.58,1.09,8.99
235,9.720,34.4885440,-80.5977737,147.3,29.92,-0.282,-0.154,0.952,0,-3.87,0.41,9.60
236,9.760,34.4885416,-80.5977760,147.3,30.08,-0.233,-0.168,0.957,0,-4.27,-0.21,10.33
237,9.800,34.4885393,-80.5977782,147.3,29.63,-0.171,-0.188,0.976,0,-4.55,-0.70,11.13
238,9.840,34.4885370,-80.5977804,147.3,29.46,-0.110,-0.218,1.003,0,-4.62,-0.94,12.00
239,9.880,34.4885346,-80.5977824,147.3,29.29,-0.077,-0.251,1.025,0,-4.32,-0.74,12.95
240,9.920,34.4885322,-80.5977845,147.3,29.37,-0.088,-0.280,1.023,0,-4.12,-0.16,14.24
241,10.000,34.4885272,-80.5977886,147.3,30.28,-0.121,-0.312,1.000,0,-4.12,0.25,15.97
242,10.040,34.4885245,-80.5977906,147.3,30.84,-0.153,-0.350,0.978,0,-4.34,0.30,17.84
243,10.080,34.4885219,-80.5977926,147.3,30.78,-0.169,-0.392,0.959,0,-4.66,-0.13,19.83
244,10.120,34.4885193,-80.5977945,147.3,30.58,-0.164,-0.438,0.958,0,-5.04,-0.83,21.98
245,10.160,34.4885166,-80.5977960,147.2,30.45,-0.144,-0.490,0.973,0,-5.17,-1.49,24.33
246,10.200,34.4885138,-80.5977976,147.2,30.12,-0.127,-0.527,0.986,0,-5.02,-1.73,26.69
247,10.240,34.4885111,-80.5977991,147.2,30.12,-0.125,-0.546,0.984,0,-4.82,-1.64,29.13
248,10.280,34.4885081,-80.5978006,147.2,30.97,-0.137,-0.554,0.975,0,-4.84,-1.28,31.50
249,10.320,34.4885052,-80.5978020,147.2,31.47,-0.144,-0.556,0.972,0,-5.16,-1.01,33.72
250,10.360,34.4885022,-80.5978034,147.2,31.85,-0.142,-0.563,0.983,0,-5.82,-0.79,35.51
251,10.400,34.4884991,-80.5978047,147.2,31.89,-0.129,-0.575,1.014,0,-6.69,-0.42,37.03
252,10.440,34.4884961,-80.5978058,147.2,31.68,-0.116,-0.589,1.044,0,-7.62,0.44,38.36
253,10.480,34.4884931,-80.5978068,147.2,31.50,-0.109,-0.593,1.055,0,-8.41,1.59,39.45
254,10.520,34.4884900,-80.5978077,147.2,31.59,-0.116,-0.594,1.037,0,-8.96,2.70,40.23
255,10.560,34.4884868,-80.5978086,147.2,31.99,-0.137,-0.592,1.008,0,-9.26,3.39,40.79
256,10.600,34.4884836,-80.5978093,147.2,32.30,-0.165,-0.599,0.982,0,-9.31,3.51,41.26
257,10.640,34.4884804,-80.5978100,147.2,32.73,-0.189,-0.612,0.976,0,-9.11,2.96,41.76
258,10.680,34.4884771,-80.5978107,147.1,32.64,-0.206,-0.626,0.992,0,-9.03,2.05,42.41
259,10.720,34.4884738,-80.5978112,147.1,33.09,-0.211,-0.639,1.012,0,-8.70,1.01,43.46
260,10.760,34.4884704,-80.5978116,147.2,33.50,-0.212,-0.637,1.018,0,-8.16,0.24,44.84
261,10.800,34.4884670,-80.5978119,147.2,33.73,-0.205,-0.628,1.012,0,-7.60,-0.27,46.51
262,10.840,34.4884635,-80.5978120,147.1,33.99,-0.193,-0.610,0.984,0,-6.90,-0.57,48.47
263,10.880,34.4884600,-80.5978122,147.1,34.52,-0.185,-0.601,0.971,0,-6.43,-0.69,50.98
264,10.920,34.4884566,-80.5978123,147.1,34.11,-0.177,-0.619,0.979,0,-6.26,-0.59,54.25
265,11.000,34.4884498,-80.5978122,147.1,33.63,-0.157,-0.652,1.004,0,-5.84,-0.21,58.87
266,11.040,34.4884464,-80.5978119,147.1,34.09,-0.143,-0.666,1.021,0,-5.25,0.47,63.94
267,11.080,34.4884429,-80.5978116,147.1,34.42,-0.134,-0.657,1.035,0,-4.77,1.38,69.09
268,11.120,34.4884394,-80.5978110,147.1,35.04,-0.130,-0.616,1.032,0,-4.11,2.23,73.67
269,11.160,34.4884360,-80.5978104,147.1,35.00,-0.131,-0.524,1.022,0,-3.46,2.81,76.84
270,11.200,34.4884325,-80.5978098,147.1,34.61,-0.135,-0.410,1.010,0,-3.29,2.83,77.83
271,11.240,34.4884291,-80.5978092,147.1,34.19,-0.135,-0.301,1.004,0,-3.62,2.39,76.97
272,11.280,34.4884258,-80.5978088,147.1,34.23,-0.133,-0.218,1.006,0,-4.70,1.68,74.49
273,11.320,34.4884223,-80.5978081,147.1,34.75,-0.126,-0.195,1.007,0,-6.66,1.00,70.71
274,11.360,34.4884187,-80.5978073,147.1,35.56,-0.125,-0.234,1.007,0,-8.77,0.51,66.68
275,11.400,34.4884151,-80.5978066,147.1,35.76,-0.128,-0.310,1.003,0,-10.56,0.18,63.08
276,11.440,34.4884118,-80.5978054,147.1,34.92,-0.129,-0.405,0.998,0,-11.37,-0.01,60.34
277,11.480,34.4884085,-80.5978043,147.1,34.06,-0.128,-0.484,0.991,0,-11.28,-0.06,58.53
278,11.520,34.4884052,-80.5978030,147.1,33.60,-0.128,-0.525,0.984,0,-10.41,-0.11,57.49
279,11.560,34.4884021,-80.5978018,147.1,32.95,-0.122,-0.531,0.978,0,-9.23,-0.14,56.63
280,11.600,34.4883990,-80.5978007,147.1,33.11,-0.115,-0.516,0.977,0,-8.15,-0.11,55.50
281,11.640,34.4883958,-80.5977993,147.2,32.97,-0.109,-0.491,0.978,0,-7.43,-0.02,54.03
282,11.680,34.4883927,-80.5977980,147.2,32.71,-0.108,-0.464,0.978,0,-6.97,0.07,52.13
283,11.720,34.4883896,-80.5977966,147.2,33.02,-0.104,-0.437,0.984,0,-6.66,0.16,49.73
284,11.760,34.4883865,-80.5977952,147.2,32.97,-0.098,-0.399,0.988,0,-6.17,0.18,46.40
285,11.800,34.4883835,-80.5977937,147.2,32.82,-0.088,-0.354,0.991,0,-5.70,0.16,42.37
286,11.840,34.4883805,-80.5977921,147.2,32.20,-0.081,-0.307,0.988,0,-5.38,0.10,37.50
287,11.880,34.4883777,-80.5977905,147.2,31.67,-0.074,-0.278,0.991,0,-5.18,0.11,31.67
288,11.920,34.4883748,-80.5977889,147.2,31.29,-0.074,-0.272,0.992,0,-5.08,0.23,24.83
289,12.000,34.4883693,-80.5977857,147.2,30.72,-0.077,-0.291,0.993,0,-4.95,0.39,17.24
290,12.040,34.4883666,-80.5977840,147.2,30.34,-0.082,-0.317,0.996,0,-4.73,0.51,9.92
291,12.080,34.4883639,-80.5977823,147.2,30.17,-0.077,-0.341,0.997,0,-4.32,0.72,3.01
292,12.120,34.4883612,-80.5977805,147.2,30.22,-0.068,-0.349,0.994,0,-3.54,0.93,-3.27
293,12.160,34.4883586,-80.5977788,147.2,30.06,-0.057,-0.334,0.990,0,-2.76,1.20,-9.28
294,12.200,34.4883560,-80.5977771,147.2,29.68,-0.053,-0.323,0.989,0,-2.48,1.54,-14.75
295,12.240,34.4883535,-80.5977753,147.2,29.34,-0.071,-0.333,0.994,0,-2.47,1.92,-20.30
296,12.280,34.4883511,-80.5977734,147.2,29.28,-0.119,-0.363,1.002,0,-2.47,2.27,-25.62
297,12.320,34.4883486,-80.5977715,147.2,29.99,-0.190,-0.408,1.005,0,-2.23,2.55,-30.47
298,12.360,34.4883461,-80.5977693,147.2,30.36,-0.266,-0.449,0.994,0,-1.63,2.50,-34.15
299,12.400,34.4883438,-80.5977671,147.2,30.56,-0.330,-0.469,0.977,0,-0.81,2.30,-36.66
300,12.440,34.4883413,-80.5977647,147.2,30.96,-0.349,-0.451,0.962,0,0.64,1.72,-37.70
301,12.480,34.4883389,-80.5977624,147.2,31.29,-0.324,-0.386,0.953,0,2.35,0.81,-37.16
302,12.520,34.4883365,-80.5977600,147.2,31.10,-0.261,-0.280,0.957,0,3.77,-0.28,-34.82
303,12.560,34.4883342,-80.5977577,147.2,30.76,-0.174,-0.158,0.979,0,4.23,-1.09,-30.88
304,12.600,34.4883316,-80.5977554,147.2,30.53,-0.093,-0.056,1.007,0,2.89,-1.30,-25.37
305,12.640,34.4883292,-80.5977533,147.2,30.03,-0.044,0.002,1.031,0,0.48,-0.79,-19.47
306,12.680,34.4883269,-80.5977511,147.2,29.97,-0.043,0.013,1.039,0,-2.00,0.24,-13.92
307,12.720,34.4883245,-80.5977488,147.2,30.31,-0.088,-0.012,1.034,0,-3.94,1.52,-9.27
308,12.760,34.4883219,-80.5977464,147.2,30.95,-0.166,-0.048,1.016,0,-4.89,2.53,-5.67
309,12.800,34.4883194,-80.5977439,147.2,31.57,-0.241,-0.072,0.990,0,-4.69,2.80,-3.28
310,12.840,34.4883168,-80.5977414,147.2,31.94,-0.288,-0.084,0.965,0,-4.33,2.47,-1.43
311,12.880,34.4883142,-80.5977389,147.2,32.27,-0.290,-0.085,0.959,0,-4.13,1.62,0.10
312,12.920,34.4883117,-80.5977363,147.2,32.31,-0.270,-0.082,0.971,0,-4.01,0.86,1.33
313,13.000,34.4883066,-80.5977314,147.2,32.33,-0.266,-0.078,0.985,0,-4.06,0.86,2.31
314,13.040,34.4883041,-80.5977288,147.2,32.48,-0.274,-0.080,0.992,0,-4.17,1.24,3.14
315,13.080,34.4883015,-80.5977262,147.2,33.22,-0.286,-0.083,0.986,0,-4.25,1.48,3.81
316,13.120,34.4882988,-80.5977235,147.2,34.00,-0.295,-0.092,0.971,0,-4.39,1.46,4.35
317,13.160,34.4882962,-80.5977207,147.2,34.08,-0.290,-0.103,0.961,0,-4.56,1.07,4.89
318,13.200,34.4882935,-80.5977180,147.2,34.32,-0.265,-0.124,0.963,0,-4.77,0.41,5.42
319,13.240,34.4882910,-80.5977152,147.2,34.05,-0.249,-0.149,0.977,0,-4.92,0.11,6.07
320,13.280,34.4882883,-80.5977124,147.2,34.38,-0.250,-0.187,0.992,0,-5.24,0.32,7.07
321,13.320,34.4882856,-80.5977095,147.2,35.02,-0.259,-0.240,1.002,0,-5.69,0.76,8.47
322,13.360,34.4882830,-80.5977066,147.2,35.55,-0.267,-0.302,0.997,0,-6.27,1.10,10.34
323,13.400,34.4882804,-80.5977034,147.2,35.76,-0.265,-0.371,0.985,0,-6.79,1.11,12.67
324,13.440,34.4882779,-80.5977003,147.2,35.91,-0.254,-0.438,0.979,0,-7.05,0.85,15.45
325,13.480,34.4882754,-80.5976970,147.2,36.03,-0.240,-0.487,0.981,0,-6.96,0.58,18.19
326,13.520,34.4882730,-80.5976937,147.2,36.11,-0.237,-0.513,0.983,0,-6.54,0.52,20.64
327,13.560,34.4882706,-80.5976904,147.3,36.34,-0.243,-0.515,0.980,0,-5.87,0.60,22.52
328,13.600,34.4882682,-80.5976869,147.3,36.86,-0.252,-0.498,0.975,0,-5.04,0.54,23.62
329,13.640,34.4882658,-80.5976834,147.3,37.37,-0.256,-0.468,0.969,0,-4.31,0.33,23.93
330,13.680,34.4882634,-80.5976798,147.3,37.60,-0.252,-0.428,0.970,0,-3.66,0.02,23.69
331,13.720,34.4882612,-80.5976762,147.3,37.40,-0.240,-0.382,0.981,0,-3.24,-0.22,23.05
332,13.760,34.4882589,-80.5976724,147.3,37.76,-0.228,-0.333,0.994,0,-2.85,-0.14,21.92
333,13.800,34.4882566,-80.5976688,147.3,37.79,-0.220,-0.273,0.998,0,-2.26,0.22,20.35
334,13.840,34.4882543,-80.5976651,147.3,38.01,-0.220,-0.206,0.994,0,-1.48,0.71,18.24
335,13.880,34.4882521,-80.5976614,147.3,38.42,-0.226,-0.122,0.978,0,-0.52,1.07,15.40
336,13.920,34.4882497,-80.5976575,147.3,39.11,-0.231,-0.013,0.970,0,0.55,1.03,11.60
337,14.000,34.4882448,-80.5976499,147.2,39.12,-0.227,0.125,0.977,0,1.62,0.71,6.58
338,14.040,34.4882424,-80.5976463,147.2,38.89,-0.215,0.270,0.990,0,2.43,0.48,1.16
339,14.080,34.4882398,-80.5976428,147.2,38.98,-0.200,0.409,1.000,0,2.83,0.41,-4.49
340,14.120,34.4882370,-80.5976392,147.2,39.46,-0.185,0.526,1.006,0,2.88,0.59,-10.02
341,14.160,34.4882342,-80.5976357,147.2,39.75,-0.175,0.609,0.997,0,2.65,0.94,-15.01
342,14.200,34.4882314,-80.5976322,147.2,40.00,-0.173,0.654,0.979,0,2.09,1.08,-19.11
343,14.240,34.4882285,-80.5976288,147.2,40.01,-0.174,0.675,0.963,0,1.40,0.91,-22.49
344,14.280,34.4882255,-80.5976254,147.2,40.25,-0.173,0.688,0.958,0,0.88,0.46,-25.16
345,14.320,34.4882224,-80.5976221,147.2,40.27,-0.165,0.697,0.964,0,0.40,-0.10,-27.39
346,14.360,34.4882193,-80.5976189,147.2,40.22,-0.156,0.699,0.974,0,-0.05,-0.50,-29.19
347,14.400,34.4882162,-80.5976158,147.2,40.36,-0.152,0.682,0.981,0,-0.68,-0.50,-30.36
348,14.440,34.4882129,-80.5976128,147.2,40.42,-0.157,0.635,0.984,0,-1.61,-0.13,-30.73
349,14.480,34.4882095,-80.5976099,147.2,40.93,-0.177,0.546,0.984,0,-2.86,0.56,-29.60
350,14.520,34.4882059,-80.5976068,147.2,41.45,-0.203,0.435,0.984,0,-4.18,1.25,-27.00
351,14.560,34.4882027,-80.5976039,147.2,41.65,-0.219,0.312,0.987,0,-5.42,1.70,-23.26
352,14.600,34.4881992,-80.5976008,147.2,42.20,-0.222,0.186,0.993,0,-6.49,1.81,-18.66
353,14.640,34.4881959,-80.5975976,147.2,42.17,-0.213,0.065,0.998,0,-7.30,1.64,-13.89
354,14.680,34.4881925,-80.5975945,147.2,42.20,-0.193,-0.045,0.999,0,-7.90,1.25,-9.39
355,14.720,34.4881892,-80.5975914,147.2,42.02,-0.171,-0.158,0.994,0,-8.41,0.85,-4.97
356,14.760,34.4881858,-80.5975883,147.2,42.06,-0.143,-0.281,0.986,0,-8.93,0.29,-0.17
357,14.800,34.4881825,-80.5975850,147.1,42.75,-0.110,-0.401,0.980,0,-9.30,-0.35,4.70
358,14.840,34.4881793,-80.5975816,147.1,42.85,-0.071,-0.514,0.985,0,-9.56,-0.89,9.77
359,14.880,34.4881761,-80.5975780,147.1,42.72,-0.024,-0.616,0.995,0,-9.48,-1.22,15.09
360,14.920,34.4881731,-80.5975745,147.1,42.22,0.020,-0.692,1.003,0,-8.97,-1.17,20.41
361,15.000,34.4881673,-80.5975672,147.1,41.57,0.047,-0.733,1.007,0,-8.19,-0.78,24.97
362,15.040,34.4881646,-80.5975634,147.1,41.35,0.060,-0.748,1.010,0,-7.37,-0.28,28.55
363,15.080,34.4881618,-80.5975596,147.1,41.39,0.064,-0.745,1.007,0,-6.56,0.08,31.05
364,15.120,34.4881591,-80.5975558,147.1,41.49,0.063,-0.727,1.001,0,-5.80,0.24,32.41
365,15.160,34.4881566,-80.5975519,147.1,41.22,0.062,-0.704,0.996,0,-5.19,0.11,32.80
366,15.200,34.4881542,-80.5975479,147.1,41.22,0.066,-0.678,0.991,0,-4.51,-0.10,32.57
367,15.240,34.4881518,-80.5975438,147.1,40.84,0.070,-0.647,0.988,0,-3.79,-0.29,32.04
368,15.280,34.4881495,-80.5975397,147.0,40.72,0.071,-0.606,0.989,0,-3.08,-0.38,31.22
369,15.320,34.4881472,-80.5975356,147.0,40.96,0.068,-0.549,0.996,0,-2.25,-0.31,29.90
370,15.360,34.4881451,-80.5975314,147.0,40.80,0.064,-0.476,1.005,0,-1.48,-0.03,28.08
371,15.400,34.4881429,-80.5975273,147.0,40.42,0.060,-0.393,1.014,0,-0.77,0.36,25.69
372,15.440,34.4881407,-80.5975232,147.0,39.84,0.058,-0.294,1.013,0,0.07,0.76,22.70
373,15.480,34.4881387,-80.5975191,147.0,39.60,0.054,-0.176,1.012,0,0.82,1.16,18.92
374,15.520,34.4881366,-80.5975151,147.0,39.75,0.048,-0.053,1.010,0,1.49,1.43,14.76
375,15.560,34.4881343,-80.5975111,147.0,39.65,0.036,0.075,1.007,0,2.05,1.52,10.20
376,15.600,34.4881321,-80.5975072,147.0,39.57,0.015,0.212,1.004,0,2.54,1.39,5.03
377,15.640,34.4881298,-80.5975033,147.0,39.29,-0.009,0.345,1.003,0,2.88,1.21,-0.34
378,15.680,34.4881275,-80.5974995,147.0,39.18,-0.038,0.463,0.998,0,3.17,0.98,-5.66
379,15.720,34.4881251,-80.5974958,147.0,38.95,-0.064,0.569,0.992,0,3.25,0.69,-10.95
380,15.760,34.4881226,-80.5974921,147.0,39.16,-0.077,0.655,0.985,0,3.15,0.42,-16.20
381,15.800,34.4881200,-80.5974885,147.0,39.48,-0.078,0.717,0.981,0,2.78,0.25,-20.81
382,15.840,34.4881171,-80.5974851,147.0,39.74,-0.071,0.755,0.976,0,2.29,0.14,-24.85
383,15.880,34.4881145,-80.5974815,147.0,39.91,-0.067,0.778,0.977,0,1.87,0.13,-28.28
384,15.920,34.4881116,-80.5974781,147.0,39.86,-0.079,0.788,0.975,0,1.43,0.30,-31.33
385,16.000,34.4881056,-80.5974715,147.0,40.32,-0.109,0.791,0.972,0,0.97,0.40,-33.58
386,16.040,34.4881024,-80.5974684,147.0,40.44,-0.140,0.783,0.967,0,0.47,0.37,-35.11
387,16.080,34.4880992,-80.5974653,146.9,40.51,-0.171,0.773,0.965,0,0.00,0.27,-35.90
388,16.120,34.4880958,-80.5974623,146.9,41.01,-0.191,0.754,0.963,0,-0.73,0.20,-36.01
389,16.160,34.4880924,-80.5974595,146.9,41.20,-0.201,0.717,0.963,0,-1.66,0.18,-35.25
390,16.200,34.4880889,-80.5974566,146.9,41.46,-0.212,0.653,0.964,0,-2.80,0.41,-33.56
391,16.240,34.4880855,-80.5974536,146.9,41.62,-0.228,0.564,0.967,0,-4.00,0.77,-31.07
392,16.280,34.4880819,-80.5974508,146.9,41.75,-0.248,0.451,0.964,0,-5.23,1.06,-27.82
393,16.320,34.4880785,-80.5974480,146.9,42.16,-0.267,0.317,0.964,0,-6.34,1.07,-23.60
394,16.360,34.4880748,-80.5974451,146.9,43.00,-0.275,0.179,0.969,0,-7.27,0.86,-18.89
395,16.400,34.4880712,-80.5974422,146.9,43.30,-0.268,0.043,0.976,0,-7.98,0.53,-14.05
396,16.440,34.4880676,-80.5974392,146.9,43.42,-0.245,-0.089,0.983,0,-8.54,0.19,-9.11
397,16.480,34.4880641,-80.5974362,146.9,43.58,-0.202,-0.230,0.988,0,-9.00,-0.07,-3.80
398,16.520,34.4880605,-80.5974330,146.9,43.62,-0.151,-0.363,0.989,0,-9.29,-0.22,1.47
399,16.560,34.4880570,-80.5974298,146.9,43.75,-0.097,-0.490,0.991,0,-9.46,-0.31,6.90
400,16.600,34.4880537,-80.5974264,146.8,43.44,-0.045,-0.603,0.993,0,-9.47,-0.40,12.40
401,16.640,34.4880505,-80.5974231,146.8,43.05,0.000,-0.699,1.000,0,-9.26,-0.46,18.02
402,16.680,34.4880474,-80.5974195,146.8,42.74,0.032,-0.764,1.007,0,-8.95,-0.45,23.02
403,16.720,34.4880444,-80.5974159,146.8,42.74,0.055,-0.809,1.013,0,-8.54,-0.33,27.42
404,16.760,34.4880414,-80.5974123,146.8,42.70,0.067,-0.835,1.012,0,-7.94,-0.17,31.14
405,16.800,34.4880385,-80.5974085,146.8,42.87,0.071,-0.844,1.009,0,-7.32,0.01,34.01
406,16.840,34.4880357,-80.5974047,146.8,42.52,0.067,-0.838,1.006,0,-6.71,0.15,35.86
407,16.880,34.4880330,-80.5974007,146.8,42.36,0.053,-0.817,1.005,0,-6.10,0.29,36.88
408,16.920,34.4880302,-80.5973968,146.8,42.08,0.035,-0.762,1.000,0,-5.16,0.38,36.61
409,17.000,34.4880251,-80.5973887,146.8,42.60,0.014,-0.676,0.996,0,-4.01,0.49,34.88
410,17.040,34.4880226,-80.5973845,146.8,42.45,-0.007,-0.565,0.993,0,-2.72,0.55,31.95
411,17.080,34.4880201,-80.5973803,146.8,42.35,-0.032,-0.441,0.992,0,-1.48,0.66,28.19
412,17.120,34.4880177,-80.5973762,146.8,42.19,-0.060,-0.307,0.994,0,-0.29,0.76,23.82
413,17.160,34.4880153,-80.5973720,146.8,42.16,-0.092,-0.183,0.997,0,0.57,0.91,19.33
414,17.200,34.4880128,-80.5973678,146.8,42.26,-0.126,-0.060,0.999,0,1.20,1.06,14.71
415,17.240,34.4880103,-80.5973636,146.8,42.27,-0.154,0.057,1.001,0,1.64,1.24,10.16
416,17.280,34.4880077,-80.5973595,146.8,42.49,-0.172,0.173,0.998,0,1.99,1.33,5.54
417,17.320,34.4880050,-80.5973554,146.8,42.71,-0.178,0.289,0.992,0,2.28,1.29,0.84
418,17.360,34.4880022,-80.5973514,146.8,42.69,-0.179,0.404,0.987,0,2.46,1.20,-4.15
419,17.400,34.4879994,-80.5973474,146.8,42.84,-0.177,0.504,0.980,0,2.54,1.14,-8.94
420,17.440,34.4879965,-80.5973434,146.8,43.08,-0.179,0.590,0.973,0,2.49,0.98,-13.56
421,17.480,34.4879936,-80.5973395,146.8,43.26,-0.182,0.658,0.964,0,2.26,0.71,-17.92
422,17.520,34.4879905,-80.5973356,146.8,43.64,-0.182,0.706,0.960,0,1.88,0.37,-21.74
423,17.560,34.4879874,-80.5973319,146.8,43.58,-0.175,0.733,0.960,0,1.56,0.00,-24.82
424,17.600,34.4879842,-80.5973281,146.8,43.89,-0.163,0.753,0.964,0,1.39,-0.33,-27.44
425,17.640,34.4879808,-80.5973245,146.8,43.97,-0.150,0.771,0.971,0,1.29,-0.51,-29.66
426,17.680,34.4879775,-80.5973210,146.8,43.82,-0.143,0.785,0.981,0,1.09,-0.35,-31.52
427,17.720,34.4879739,-80.5973178,146.8,44.14,-0.144,0.791,0.986,0,0.73,0.11,-32.93
428,17.760,34.4879702,-80.5973145,146.8,44.33,-0.158,0.782,0.988,0,0.09,0.68,-33.71
429,17.800,34.4879665,-80.5973112,146.8,44.86,-0.184,0.750,0.983,0,-0.82,1.20,-33.48
430,17.840,34.4879627,-80.5973081,146.8,45.36,-0.215,0.696,0.972,0,-1.94,1.48,-32.22
431,17.880,34.4879590,-80.5973049,146.8,45.62,-0.237,0.621,0.962,0,-3.13,1.37,-29.96
432,17.920,34.4879552,-80.5973016,146.8,45.88,-0.250,0.505,0.961,0,-4.53,0.92,-26.38
433,18.000,34.4879475,-80.5972954,146.8,45.96,-0.252,0.358,0.968,0,-5.77,0.63,-21.84
434,18.040,34.4879436,-80.5972923,146.8,46.39,-0.250,0.194,0.970,0,-6.72,0.54,-16.76
435,18.080,34.4879396,-80.5972891,146.8,46.99,-0.240,0.036,0.974,0,-7.47,0.62,-11.71
436,18.120,34.4879358,-80.5972857,146.8,47.33,-0.225,-0.130,0.975,0,-8.16,0.64,-6.17
437,18.160,34.4879320,-80.5972822,146.8,47.39,-0.203,-0.278,0.976,0,-8.59,0.57,-0.81
438,18.200,34.4879280,-80.5972789,146.8,47.52,-0.168,-0.419,0.982,0,-8.98,0.27,4.72
439,18.240,34.4879243,-80.5972753,146.8,47.85,-0.127,-0.539,0.995,0,-9.11,-0.05,10.13
440,18.280,34.4879207,-80.5972716,146.8,47.46,-0.091,-0.646,1.008,0,-9.00,-0.15,15.51
441,18.320,34.4879171,-80.5972679,146.8,47.14,-0.067,-0.720,1.013,0,-8.47,0.01,20.31
442,18.360,34.4879136,-80.5972640,146.8,47.23,-0.054,-0.764,1.010,0,-7.82,0.25,24.33
443,18.400,34.4879102,-80.5972600,146.7,47.40,-0.051,-0.782,0.999,0,-7.12,0.40,27.28
444,18.440,34.4879068,-80.5972559,146.7,47.42,-0.047,-0.785,0.993,0,-6.57,0.35,29.41
445,18.480,34.4879036,-80.5972518,146.7,47.43,-0.039,-0.785,0.990,0,-6.12,0.12,30.94
446,18.520,34.4879004,-80.5972475,146.7,47.29,-0.030,-0.783,0.992,0,-5.85,-0.07,31.93
447,18.560,34.4878972,-80.5972432,146.7,47.29,-0.025,-0.778,0.994,0,-5.72,-0.12,32.60
448,18.600,34.4878941,-80.5972389,146.7,47.32,-0.022,-0.776,0.995,0,-5.68,-0.03,32.99
449,18.640,34.4878911,-80.5972346,146.7,46.96,-0.026,-0.772,0.992,0,-5.62,0.12,33.10
450,18.680,34.4878883,-80.5972301,146.7,47.18,-0.033,-0.762,0.988,0,-5.40,0.17,32.81
451,18.720,34.4878855,-80.5972255,146.7,47.29,-0.038,-0.744,0.983,0,-5.06,0.07,32.26
452,18.760,34.4878828,-80.5972207,146.7,47.37,-0.043,-0.718,0.979,0,-4.60,-0.11,31.50
453,18.800,34.4878801,-80.5972159,146.7,47.32,-0.046,-0.677,0.977,0,-4.08,-0.30,30.42
454,18.840,34.4878776,-80.5972111,146.7,47.31,-0.048,-0.622,0.979,0,-3.47,-0.42,29.05
455,18.880,34.4878751,-80.5972063,146.7,47.17,-0.050,-0.559,0.987,0,-2.84,-0.35,27.36
456,18.920,34.4878725,-80.5972016,146.7,46.91,-0.053,-0.462,1.000,0,-2.04,0.10,24.65
457,19.000,34.4878674,-80.5971919,146.7,47.12,-0.059,-0.338,1.009,0,-1.13,0.73,20.94
458,19.040,34.4878649,-80.5971870,146.7,47.19,-0.069,-0.196,1.014,0,-0.11,1.34,16.50
459,19.080,34.4878624,-80.5971821,146.7,47.25,-0.079,-0.055,1.016,0,0.83,1.75,11.88
460,19.120,34.4878599,-80.5971772,146.7,47.29,-0.090,0.100,1.013,0,1.74,1.88,6.66
461,19.160,34.4878574,-80.5971725,146.7,47.10,-0.098,0.240,1.005,0,2.50,1.65,1.60
462,19.200,34.4878546,-80.5971677,146.7,47.00,-0.102,0.383,0.996,0,3.07,1.21,-4.00
463,19.280,34.4878490,-80.5971585,146.7,47.21,-0.106,0.512,0.988,0,3.24,0.74,-9.72
464,19.320,34.4878461,-80.5971539,146.7,47.13,-0.107,0.624,0.980,0,3.15,0.36,-15.21
465,19.360,34.4878430,-80.5971496,146.7,47.37,-0.110,0.702,0.973,0,2.82,0.11,-20.03
466,19.400,34.4878399,-80.5971452,146.7,47.49,-0.114,0.758,0.966,0,2.39,-0.06,-24.10
467,19.440,34.4878368,-80.5971408,146.7,47.61,-0.118,0.783,0.964,0,1.97,-0.17,-26.87
468,19.480,34.4878336,-80.5971365,146.7,47.65,-0.122,0.794,0.964,0,1.64,-0.22,-28.74
469,19.520,34.4878301,-80.5971323,146.7,47.87,-0.128,0.802,0.964,0,1.34,-0.25,-30.11
470,19.560,34.4878267,-80.5971282,146.7,47.98,-0.134,0.808,0.965,0,1.00,-0.18,-30.97
471,19.600,34.4878233,-80.5971242,146.7,48.06,-0.143,0.807,0.965,0,0.59,-0.06,-31.50
472,19.640,34.4878196,-80.5971203,146.7,48.07,-0.156,0.804,0.965,0,0.27,0.07,-31.72
473,19.680,34.4878159,-80.5971165,146.7,48.43,-0.167,0.799,0.963,0,-0.08,0.16,-31.64
474,19.720,34.4878119,-80.5971127,146.7,48.90,-0.173,0.791,0.959,0,-0.41,0.19,-31.33
475,19.760,34.4878081,-80.5971091,146.7,48.88,-0.181,0.780,0.957,0,-0.73,0.14,-30.84
476,19.800,34.4878039,-80.5971054,146.7,49.28,-0.185,0.760,0.960,0,-1.23,0.11,-30.12
477,19.840,34.4878000,-80.5971019,146.7,49.43,-0.186,0.723,0.964,0,-2.02,0.19,-29.15
478,19.880,34.4877959,-80.5970984,146.6,49.43,-0.193,0.665,0.971,0,-2.91,0.45,-27.77
479,19.920,34.4877917,-80.5970950,146.6,49.77,-0.207,0.560,0.974,0,-4.23,0.83,-25.13
480,20.000,34.4877834,-80.5970882,146.6,50.59,-0.219,0.415,0.977,0,-5.68,1.08,-21.17
481,20.040,34.4877792,-80.5970847,146.6,50.79,-0.224,0.256,0.976,0,-6.99,1.04,-16.55
482,20.080,34.4877749,-80.5970813,146.6,51.18,-0.223,0.086,0.977,0,-8.18,0.81,-11.40
483,20.120,34.4877707,-80.5970777,146.6,51.32,-0.213,-0.096,0.981,0,-9.19,0.48,-5.65
484,20.160,34.4877665,-80.5970741,146.6,51.36,-0.194,-0.260,0.988,0,-9.78,0.17,-0.18
485,20.200,34.4877624,-80.5970703,146.6,51.53,-0.173,-0.412,0.994,0,-10.04,0.07,5.23
486,20.240,34.4877584,-80.5970664,146.6,51.50,-0.151,-0.549,0.999,0,-9.99,0.18,10.56
487,20.280,34.4877544,-80.5970626,146.6,51.94,-0.129,-0.661,0.999,0,-9.51,0.28,15.60
488,20.320,34.4877504,-80.5970584,146.6,52.05,-0.107,-0.737,0.996,0,-8.88,0.40,19.99
489,20.360,34.4877466,-80.5970542,146.6,51.84,-0.088,-0.784,0.989,0,-8.12,0.39,23.82
490,20.400,34.4877428,-80.5970500,146.6,51.76,-0.070,-0.806,0.986,0,-7.44,0.21,26.67
491,20.440,34.4877392,-80.5970457,146.6,51.45,-0.058,-0.819,0.987,0,-7.04,0.06,28.80
492,20.480,34.4877356,-80.5970413,146.6,51.61,-0.047,-0.825,0.986,0,-6.78,-0.14,30.31
493,20.520,34.4877320,-80.5970368,146.6,51.79,-0.041,-0.833,0.985,0,-6.53,-0.39,31.38
494,20.560,34.4877285,-80.5970320,146.6,51.85,-0.033,-0.845,0.990,0,-6.46,-0.39,32.16
495,20.600,34.4877251,-80.5970273,146.6,51.78,-0.031,-0.852,0.991,0,-6.33,-0.35,32.80
496,20.640,34.4877218,-80.5970226,146.6,51.42,-0.029,-0.851,0.993,0,-5.97,-0.24,33.25
497,20.680,34.4877186,-80.5970177,146.6,51.42,-0.031,-0.833,0.996,0,-5.45,0.05,33.32
498,20.720,34.4877155,-80.5970127,146.5,51.76,-0.037,-0.786,0.998,0,-4.65,0.36,32.73
499,20.760,34.4877125,-80.5970078,146.5,51.74,-0.048,-0.711,0.999,0,-3.55,0.63,31.22
500,20.800,34.4877095,-80.5970026,146.5,51.72,-0.061,-0.602,1.000,0,-2.37,0.99,28.37
501,20.840,34.4877065,-80.5969975,146.5,51.88,-0.074,-0.472,0.998,0,-1.22,1.22,24.57
502,20.880,34.4877036,-80.5969923,146.5,51.67,-0.087,-0.339,0.999,0,-0.29,1.34,20.15
503,20.920,34.4877005,-80.5969872,146.5,51.65,-0.097,-0.189,1.000,0,0.40,1.23,14.88
504,21.000,34.4876945,-80.5969771,146.5,51.79,-0.100,-0.030,1.001,0,0.94,1.04,9.34
505,21.040,34.4876914,-80.5969720,146.5,51.69,-0.100,0.119,0.999,0,1.41,0.81,4.18
506,21.080,34.4876883,-80.5969671,146.5,51.63,-0.099,0.264,0.997,0,1.84,0.62,-0.81
507,21.120,34.4876851,-80.5969622,146.5,51.49,-0.095,0.409,0.990,0,2.32,0.50,-5.99
508,21.160,34.4876818,-80.5969573,146.6,51.75,-0.092,0.533,0.981,0,2.69,0.36,-10.71
509,21.200,34.4876785,-80.5969525,146.6,52.00,-0.087,0.631,0.976,0,2.81,0.19,-15.06
510,21.240,34.4876750,-80.5969478,146.5,51.79,-0.079,0.708,0.978,0,2.64,0.09,-19.23
511,21.280,34.4876716,-80.5969432,146.5,51.80,-0.073,0.765,0.980,0,2.32,0.03,-22.83
512,21.320,34.4876680,-80.5969386,146.5,51.75,-0.072,0.798,0.985,0,1.74,0.09,-25.55
513,21.360,34.4876643,-80.5969343,146.6,51.65,-0.081,0.809,0.990,0,1.02,0.37,-27.50
514,21.400,34.4876606,-80.5969298,146.6,51.57,-0.096,0.809,0.988,0,0.41,0.60,-28.66
515,21.440,34.4876568,-80.5969257,146.6,51.67,-0.114,0.803,0.978,0,-0.14,0.68,-29.03
516,21.480,34.4876528,-80.5969214,146.5,52.32,-0.128,0.788,0.969,0,-0.71,0.67,-28.93
517,21.520,34.4876487,-80.5969173,146.5,52.74,-0.138,0.771,0.962,0,-1.10,0.51,-28.53
518,21.560,34.4876445,-80.5969133,146.5,53.03,-0.144,0.748,0.962,0,-1.53,0.37,-27.87
519,21.600,34.4876403,-80.5969093,146.5,52.88,-0.148,0.708,0.967,0,-2.08,0.41,-27.02
520,21.640,34.4876361,-80.5969056,146.5,52.81,-0.155,0.653,0.975,0,-2.64,0.58,-25.84
521,21.680,34.4876318,-80.5969017,146.5,52.64,-0.168,0.572,0.980,0,-3.38,0.85,-23.92
522,21.720,34.4876276,-80.5968979,146.5,53.05,-0.181,0.469,0.982,0,-4.30,1.14,-21.32
523,21.760,34.4876232,-80.5968941,146.5,53.64,-0.192,0.351,0.983,0,-5.18,1.27,-18.07
524,21.800,34.4876189,-80.5968903,146.5,54.06,-0.197,0.215,0.983,0,-6.12,1.22,-14.00
525,21.840,34.4876145,-80.5968863,146.5,54.04,-0.194,0.067,0.984,0,-7.09,1.07,-9.53
526,21.880,34.4876102,-80.5968824,146.5,53.99,-0.183,-0.079,0.991,0,-7.92,0.86,-4.95
527,21.920,34.4876059,-80.5968784,146.5,54.08,-0.166,-0.244,0.995,0,-8.58,0.62,0.51
528,22.000,34.4875976,-80.5968702,146.5,54.54,-0.146,-0.408,0.995,0,-8.89,0.41,6.39
529,22.040,34.4875934,-80.5968659,146.5,54.70,-0.126,-0.547,0.992,0,-8.89,0.23,11.88
530,22.080,34.4875894,-80.5968614,146.5,54.59,-0.105,-0.662,0.990,0,-8.64,0.11,17.14
531,22.120,34.4875855,-80.5968568,146.5,54.53,-0.086,-0.749,0.989,0,-8.21,0.02,21.79
532,22.160,34.4875815,-80.5968523,146.5,54.51,-0.073,-0.798,0.988,0,-7.72,0.02,25.23
533,22.200,34.4875777,-80.5968477,146.5,54.59,-0.064,-0.822,0.986,0,-7.34,0.05,27.66
534,22.240,34.4875739,-80.5968429,146.5,54.49,-0.058,-0.834,0.987,0,-6.94,0.04,29.40
535,22.280,34.4875702,-80.5968379,146.5,54.71,-0.057,-0.835,0.987,0,-6.60,-0.01,30.38
536,22.320,34.4875666,-80.5968329,146.5,54.63,-0.059,-0.834,0.985,0,-6.38,-0.10,30.87
537,22.360,34.4875631,-80.5968279,146.5,54.76,-0.060,-0.827,0.982,0,-6.14,-0.20,30.94
538,22.400,34.4875596,-80.5968228,146.5,54.77,-0.061,-0.815,0.985,0,-5.88,-0.29,30.76
539,22.440,34.4875562,-80.5968176,146.5,54.78,-0.062,-0.801,0.989,0,-5.69,-0.19,30.39
540,22.480,34.4875529,-80.5968123,146.5,54.81,-0.066,-0.776,0.990,0,-5.34,-0.05,29.72
541,22.520,34.4875497,-80.5968068,146.5,54.91,-0.072,-0.735,0.989,0,-4.75,0.11,28.71
542,22.560,34.4875466,-80.5968015,146.5,54.68,-0.081,-0.675,0.993,0,-4.02,0.36,27.05
543,22.600,34.4875436,-80.5967958,146.5,54.89,-0.090,-0.592,0.992,0,-3.09,0.53,24.73
544,22.640,34.4875406,-80.5967903,146.5,54.58,-0.100,-0.481,0.988,0,-1.93,0.57,21.56
545,22.680,34.4875376,-80.5967848,146.5,54.75,-0.108,-0.356,0.986,0,-0.81,0.60,17.89
546,22.720,34.4875345,-80.5967793,146.5,54.89,-0.111,-0.217,0.987,0,0.22,0.58,13.80
547,22.760,34.4875313,-80.5967738,146.5,55.03,-0.110,-0.048,0.985,0,1.33,0.47,8.79
548,22.840,34.4875249,-80.5967628,146.5,55.13,-0.108,0.140,0.980,0,2.45,0.33,3.02
549,22.880,34.4875216,-80.5967575,146.5,54.79,-0.100,0.319,0.978,0,3.31,0.16,-2.74
550,22.920,34.4875182,-80.5967522,146.5,55.13,-0.087,0.500,0.978,0,3.82,-0.01,-9.16
551,23.000,34.4875112,-80.5967419,146.5,55.14,-0.075,0.656,0.980,0,3.63,-0.02,-15.47
552,23.040,34.4875074,-80.5967369,146.5,55.23,-0.066,0.757,0.982,0,3.04,0.11,-20.51
553,23.080,34.4875036,-80.5967319,146.5,55.22,-0.065,0.815,0.982,0,2.16,0.29,-24.23
554,23.120,34.4875000,-80.5967269,146.5,54.82,-0.071,0.846,0.976,0,1.07,0.36,-26.90
555,23.160,34.4874961,-80.5967221,146.5,54.86,-0.081,0.852,0.972,0,0.16,0.31,-28.15
556,23.200,34.4874921,-80.5967175,146.5,55.16,-0.088,0.848,0.969,0,-0.40,0.13,-28.62
557,23.240,34.4874881,-80.5967130,146.4,55.15,-0.095,0.842,0.965,0,-0.92,0.00,-28.90
558,23.280,34.4874839,-80.5967084,146.4,55.41,-0.099,0.831,0.966,0,-1.13,-0.01,-29.02
559,23.320,34.4874796,-80.5967041,146.4,55.54,-0.107,0.819,0.964,0,-1.18,0.12,-28.96
560,23.360,34.4874752,-80.5966998,146.4,55.80,-0.115,0.789,0.962,0,-1.60,0.26,-28.51
561,23.400,34.4874708,-80.5966955,146.4,55.84,-0.127,0.747,0.963,0,-2.15,0.36,-27.54
562,23.440,34.4874665,-80.5966914,146.4,55.73,-0.139,0.685,0.964,0,-2.93,0.33,-25.92
563,23.480,34.4874618,-80.5966873,146.4,56.23,-0.147,0.601,0.967,0,-4.04,0.37,-23.65
564,23.520,34.4874574,-80.5966832,146.4,56.42,-0.150,0.497,0.974,0,-5.13,0.41,-20.78
565,23.560,34.4874527,-80.5966790,146.4,56.44,-0.151,0.376,0.977,0,-6.11,0.47,-17.27
566,23.600,34.4874483,-80.5966749,146.4,56.42,-0.148,0.239,0.983,0,-7.00,0.60,-13.44
567,23.640,34.4874436,-80.5966708,146.4,56.71,-0.135,0.088,0.992,0,-7.71,0.78,-9.13
568,23.680,34.4874392,-80.5966667,146.4,56.66,-0.119,-0.062,0.996,0,-8.33,0.83,-4.67
569,23.720,34.4874347,-80.5966624,146.3,56.86,-0.100,-0.217,1.000,0,-8.86,0.74,-0.05
570,23.760,34.4874302,-80.5966581,146.3,56.82,-0.077,-0.362,1.005,0,-9.25,0.67,4.56
571,23.800,34.4874258,-80.5966536,146.3,56.96,-0.052,-0.498,1.009,0,-9.38,0.49,9.43
572,23.840,34.4874216,-80.5966491,146.3,56.93,-0.027,-0.606,1.009,0,-9.06,0.18,13.95
573,23.880,34.4874173,-80.5966445,146.3,56.57,-0.003,-0.687,1.010,0,-8.51,0.03,18.03
574,23.920,34.4874132,-80.5966398,146.3,56.52,0.022,-0.739,1.008,0,-7.71,0.01,21.64
575,24.000,34.4874052,-80.5966303,146.3,56.08,0.041,-0.763,1.004,0,-6.83,-0.03,24.35
576,24.040,34.4874013,-80.5966253,146.3,55.89,0.053,-0.770,0.999,0,-6.18,-0.01,26.06
577,24.080,34.4873975,-80.5966204,146.3,55.72,0.059,-0.770,0.994,0,-5.69,-0.01,27.06
578,24.120,34.4873938,-80.5966154,146.3,55.71,0.061,-0.768,0.989,0,-5.36,-0.11,27.56
579,24.160,34.4873902,-80.5966103,146.3,55.61,0.060,-0.769,0.990,0,-5.27,-0.18,27.67
580,24.200,34.4873866,-80.5966051,146.3,55.59,0.062,-0.771,0.995,0,-5.18,-0.21,27.68
581,24.240,34.4873831,-80.5965999,146.3,55.24,0.066,-0.768,0.996,0,-5.06,-0.17,27.66
582,24.280,34.4873799,-80.5965946,146.3,54.96,0.069,-0.765,0.998,0,-5.07,0.00,27.64
583,24.320,34.4873766,-80.5965892,146.3,54.98,0.072,-0.759,0.999,0,-4.97,0.12,27.52
584,24.360,34.4873735,-80.5965837,146.2,54.98,0.073,-0.747,1.000,0,-4.81,0.21,27.26
585,24.400,34.4873704,-80.5965783,146.2,54.57,0.070,-0.726,0.999,0,-4.54,0.30,26.76
586,24.440,34.4873673,-80.5965728,146.2,54.09,0.064,-0.692,1.000,0,-4.08,0.34,25.96
587,24.480,34.4873645,-80.5965673,146.2,53.86,0.057,-0.639,0.999,0,-3.40,0.35,24.78
588,24.520,34.4873618,-80.5965617,146.2,53.99,0.047,-0.565,0.998,0,-2.59,0.46,23.09
589,24.560,34.4873588,-80.5965561,146.2,53.83,0.039,-0.458,0.996,0,-1.49,0.53,20.47
590,24.600,34.4873561,-80.5965505,146.2,53.76,0.033,-0.330,0.995,0,-0.30,0.54,17.15
591,24.640,34.4873532,-80.5965450,146.2,53.59,0.031,-0.187,0.994,0,0.97,0.55,13.14
592,24.680,34.4873503,-80.5965395,146.2,53.48,0.028,-0.023,0.993,0,2.39,0.48,8.24
593,24.720,34.4873475,-80.5965341,146.2,53.33,0.026,0.144,0.992,0,3.66,0.33,2.96
594,24.760,34.4873445,-80.5965286,146.2,53.01,0.021,0.300,0.991,0,4.63,0.28,-2.26
595,24.800,34.4873414,-80.5965235,146.2,52.72,0.016,0.449,0.989,0,5.22,0.22,-7.60
596,24.840,34.4873383,-80.5965183,146.2,52.79,0.013,0.576,0.988,0,5.22,0.18,-12.55
597,24.880,34.4873351,-80.5965132,146.2,52.58,0.008,0.666,0.987,0,4.70,0.22,-16.73
598,24.920,34.4873318,-80.5965082,146.2,52.81,0.001,0.731,0.986,0,3.78,0.30,-20.34
599,25.000,34.4873250,-80.5964984,146.1,52.78,-0.008,0.768,0.986,0,2.46,0.38,-23.20
600,25.040,34.4873215,-80.5964936,146.1,52.69,-0.015,0.783,0.987,0,1.21,0.45,-25.05
601,25.080,34.4873179,-80.5964888,146.1,52.53,-0.024,0.784,0.985,0,0.13,0.56,-26.22
602,25.120,34.4873143,-80.5964841,146.1,52.53,-0.032,0.776,0.983,0,-0.69,0.60,-26.87
603,25.160,34.4873106,-80.5964796,146.1,52.57,-0.040,0.765,0.979,0,-1.06,0.51,-27.07
604,25.200,34.4873068,-80.5964752,146.1,52.54,-0.048,0.756,0.971,0,-1.13,0.33,-27.01
605,25.240,34.4873030,-80.5964709,146.1,52.53,-0.058,0.744,0.963,0,-1.17,0.07,-26.89
606,25.280,34.4872989,-80.5964666,146.1,52.97,-0.067,0.731,0.959,0,-1.06,-0.26,-26.68
607,25.320,34.4872948,-80.5964624,146.1,53.09,-0.072,0.715,0.960,0,-1.09,-0.49,-26.35
608,25.360,34.4872907,-80.5964583,146.1,53.09,-0.073,0.686,0.965,0,-1.52,-0.43,-25.80
609,25.400,34.4872866,-80.5964542,146.0,52.78,-0.074,0.632,0.976,0,-2.25,-0.09,-24.68
610,25.440,34.4872823,-80.5964503,146.0,53.09,-0.078,0.557,0.989,0,-3.35,0.45,-22.88
611,25.480,34.4872781,-80.5964463,146.0,53.05,-0.085,0.459,1.004,0,-4.83,1.20,-20.29
612,25.520,34.4872738,-80.5964424,146.0,53.32,-0.096,0.341,1.011,0,-6.29,1.81,-16.96
613,25.560,34.4872695,-80.5964384,146.0,53.46,-0.108,0.200,1.003,0,-7.56,1.99,-12.80
614,25.600,34.4872653,-80.5964344,146.0,53.51,-0.115,0.053,0.991,0,-8.68,1.70,-8.37
615,25.640,34.4872610,-80.5964303,146.0,53.34,-0.112,-0.099,0.980,0,-9.52,0.97,-3.76
616,25.680,34.4872569,-80.5964260,145.9,53.40,-0.095,-0.259,0.979,0,-10.21,0.01,1.25
617,25.720,34.4872527,-80.5964219,145.9,53.86,-0.068,-0.417,0.988,0,-10.64,-0.61,6.39
618,25.760,34.4872486,-80.5964176,145.9,53.90,-0.038,-0.551,1.004,0,-10.58,-0.71,11.35
619,25.800,34.4872446,-80.5964132,145.9,53.64,-0.013,-0.660,1.010,0,-10.09,-0.38,16.04
620,25.840,34.4872409,-80.5964085,145.9,53.29,0.004,-0.736,1.008,0,-9.25,0.04,20.22
621,25.880,34.4872372,-80.5964040,145.9,53.11,0.013,-0.776,1.000,0,-8.27,0.26,23.36
622,25.920,34.4872336,-80.5963994,145.9,53.00,0.021,-0.791,0.997,0,-7.26,0.18,25.72
623,26.000,34.4872264,-80.5963898,145.8,53.07,0.027,-0.788,0.994,0,-6.43,0.11,27.37
624,26.040,34.4872229,-80.5963848,145.8,52.79,0.029,-0.778,0.993,0,-5.90,0.08,28.34
625,26.080,34.4872196,-80.5963799,145.8,52.51,0.029,-0.769,0.991,0,-5.62,0.11,28.74
626,26.120,34.4872163,-80.5963749,145.8,52.55,0.026,-0.756,0.991,0,-5.13,0.12,28.72
627,26.160,34.4872132,-80.5963699,145.8,52.80,0.019,-0.735,0.991,0,-4.64,0.21,28.30
628,26.200,34.4872101,-80.5963646,145.8,52.97,0.013,-0.702,0.993,0,-4.11,0.19,27.50
629,26.240,34.4872071,-80.5963594,145.8,52.56,0.008,-0.654,0.998,0,-3.37,0.20,26.34
630,26.280,34.4872042,-80.5963541,145.8,52.34,0.000,-0.582,1.000,0,-2.41,0.37,24.58
631,26.320,34.4872013,-80.5963488,145.8,52.13,-0.014,-0.493,0.996,0,-1.43,0.64,22.32
632,26.360,34.4871983,-80.5963436,145.8,52.02,-0.030,-0.390,0.987,0,-0.22,0.73,19.45
633,26.400,34.4871954,-80.5963384,145.8,52.25,-0.049,-0.269,0.981,0,1.11,0.67,16.04
634,26.440,34.4871924,-80.5963331,145.8,52.58,-0.071,-0.128,0.979,0,2.45,0.50,11.91
635,26.480,34.4871894,-80.5963278,145.7,52.65,-0.091,0.019,0.982,0,3.77,0.34,7.50
636,26.520,34.4871864,-80.5963226,145.7,52.37,-0.109,0.175,0.987,0,4.90,0.28,2.80
637,26.560,34.4871833,-80.5963173,145.7,52.57,-0.125,0.334,0.991,0,5.54,0.48,-2.26
638,26.600,34.4871801,-80.5963123,145.7,52.57,-0.135,0.474,0.991,0,5.71,0.75,-7.28
639,26.640,34.4871768,-80.5963073,145.7,52.74,-0.138,0.588,0.988,0,5.37,0.94,-11.85
640,26.680,34.4871733,-80.5963024,145.7,53.04,-0.141,0.671,0.984,0,4.48,1.01,-15.88
641,26.720,34.4871697,-80.5962974,145.7,53.28,-0.144,0.720,0.983,0,3.32,0.98,-19.24
642,26.760,34.4871662,-80.5962926,145.7,53.64,-0.148,0.742,0.984,0,2.20,0.85,-21.63
643,26.800,34.4871626,-80.5962876,145.7,53.59,-0.154,0.747,0.984,0,1.05,0.75,-23.26
644,26.840,34.4871589,-80.5962830,145.6,53.50,-0.161,0.739,0.981,0,0.13,0.74,-24.22
645,26.880,34.4871551,-80.5962783,145.6,53.64,-0.166,0.728,0.971,0,-0.52,0.69,-24.67
646,26.920,34.4871513,-80.5962737,145.6,53.84,-0.167,0.719,0.959,0,-1.06,0.43,-24.75
647,27.000,34.4871433,-80.5962647,145.6,54.49,-0.161,0.715,0.958,0,-1.36,0.06,-24.74
648,27.040,34.4871392,-80.5962603,145.6,54.42,-0.150,0.710,0.960,0,-1.59,-0.18,-24.74
649,27.080,34.4871350,-80.5962560,145.6,54.29,-0.140,0.704,0.967,0,-1.67,-0.23,-24.77
650,27.120,34.4871308,-80.5962517,145.6,54.38,-0.134,0.695,0.975,0,-1.70,-0.01,-24.71
651,27.160,34.4871265,-80.5962476,145.5,54.65,-0.133,0.681,0.980,0,-1.84,0.40,-24.44
652,27.200,34.4871221,-80.5962435,145.5,55.00,-0.140,0.655,0.976,0,-2.12,0.73,-23.85
653,27.240,34.4871176,-80.5962395,145.5,55.27,-0.149,0.620,0.972,0,-2.55,0.87,-22.87
654,27.280,34.4871132,-80.5962355,145.5,55.17,-0.157,0.568,0.974,0,-3.44,0.87,-21.37
655,27.320,34.4871086,-80.5962316,145.5,55.48,-0.161,0.496,0.982,0,-4.49,0.77,-19.43
656,27.360,34.4871041,-80.5962277,145.5,55.46,-0.163,0.406,0.990,0,-5.68,0.81,-17.06
657,27.400,34.4870996,-80.5962237,145.5,55.61,-0.165,0.299,0.994,0,-7.03,1.04,-14.22
658,27.440,34.4870949,-80.5962198,145.5,55.86,-0.169,0.175,0.991,0,-8.23,1.20,-10.94
659,27.480,34.4870904,-80.5962158,145.5,56.24,-0.172,0.037,0.980,0,-9.25,1.05,-7.08
660,27.520,34.4870858,-80.5962117,145.4,56.38,-0.173,-0.110,0.971,0,-10.23,0.65,-2.86
661,27.560,34.4870813,-80.5962076,145.4,56.70,-0.163,-0.269,0.969,0,-10.90,-0.01,1.87
662,27.600,34.4870769,-80.5962033,145.4,56.73,-0.145,-0.422,0.975,0,-11.12,-0.59,6.78
663,27.640,34.4870724,-80.5961988,145.4,56.82,-0.121,-0.561,0.983,0,-10.96,-0.80,11.65
664,27.680,34.4870682,-80.5961943,145.4,56.87,-0.098,-0.669,0.992,0,-10.27,-0.69,16.05
665,27.720,34.4870639,-80.5961899,145.4,56.93,-0.081,-0.742,0.991,0,-9.14,-0.43,19.98
666,27.760,34.4870598,-80.5961852,145.4,56.85,-0.070,-0.782,0.993,0,-8.04,-0.08,22.96
667,27.800,34.4870558,-80.5961804,145.4,56.62,-0.061,-0.799,0.995,0,-7.12,0.16,25.12
668,27.840,34.4870518,-80.5961755,145.4,56.75,-0.051,-0.799,0.998,0,-6.42,0.32,26.57
669,27.880,34.4870478,-80.5961706,145.3,56.67,-0.041,-0.794,0.997,0,-6.00,0.39,27.41
670,27.920,34.4870440,-80.5961656,145.3,56.59,-0.028,-0.787,0.993,0,-5.72,0.28,27.70
671,28.000,34.4870364,-80.5961553,145.3,56.65,-0.017,-0.778,0.992,0,-5.44,0.00,27.63
672,28.040,34.4870328,-80.5961500,145.3,56.58,-0.005,-0.765,0.991,0,-5.09,-0.21,27.40
673,28.080,34.4870292,-80.5961447,145.3,56.54,-0.001,-0.746,0.992,0,-4.72,-0.28,27.00
674,28.120,34.4870256,-80.5961394,145.3,56.13,0.000,-0.716,0.992,0,-4.30,-0.15,26.35
675,28.160,34.4870223,-80.5961340,145.3,56.47,-0.001,-0.681,0.994,0,-3.94,0.10,25.45
676,28.200,34.4870189,-80.5961285,145.3,56.35,-0.007,-0.642,0.991,0,-3.55,0.38,24.31
677,28.240,34.4870156,-80.5961229,145.2,56.20,-0.013,-0.596,0.993,0,-3.03,0.50,22.86
678,28.280,34.4870124,-80.5961174,145.2,56.07,-0.017,-0.534,0.991,0,-2.24,0.48,20.98
679,28.320,34.4870092,-80.5961117,145.2,56.02,-0.022,-0.459,0.989,0,-1.29,0.34,18.84
680,28.360,34.4870060,-80.5961061,145.2,56.11,-0.025,-0.368,0.987,0,-0.12,0.19,16.39
681,28.400,34.4870028,-80.5961004,145.2,55.97,-0.026,-0.258,0.987,0,1.11,0.14,13.56
682,28.440,34.4869996,-80.5960949,145.2,55.75,-0.026,-0.133,0.985,0,2.40,0.11,10.27
683,28.480,34.4869965,-80.5960894,145.1,55.94,-0.025,0.008,0.988,0,3.71,0.16,6.35
684,28.520,34.4869932,-80.5960839,145.1,55.80,-0.020,0.157,0.992,0,4.74,0.34,2.03
685,28.560,34.4869898,-80.5960783,145.1,55.56,-0.017,0.311,0.997,0,5.43,0.53,-2.76
686,28.600,34.4869864,-80.5960730,145.1,55.43,-0.016,0.454,0.999,0,5.67,0.62,-7.56
687,28.640,34.4869829,-80.5960677,145.1,55.39,-0.014,0.575,1.002,0,5.22,0.71,-12.03
688,28.680,34.4869794,-80.5960625,145.1,55.77,-0.013,0.660,1.003,0,4.20,0.72,-15.83
689,28.720,34.4869756,-80.5960573,145.0,55.66,-0.013,0.717,1.001,0,2.80,0.71,-18.99
690,28.760,34.4869719,-80.5960523,145.0,55.54,-0.015,0.742,0.996,0,1.28,0.73,-21.19
691,28.800,34.4869681,-80.5960473,145.0,55.47,-0.020,0.747,0.989,0,0.08,0.74,-22.70
692,28.840,34.4869643,-80.5960424,145.0,55.43,-0.028,0.746,0.980,0,-0.72,0.63,-23.65
693,28.880,34.4869604,-80.5960376,145.0,55.12,-0.037,0.744,0.972,0,-1.28,0.45,-24.20
694,28.920,34.4869564,-80.5960329,145.0,55.14,-0.042,0.742,0.969,0,-1.45,0.28,-24.55
695,29.000,34.4869484,-80.5960238,145.0,55.46,-0.047,0.739,0.972,0,-1.55,0.27,-24.84
696,29.040,34.4869441,-80.5960195,144.9,55.50,-0.050,0.737,0.976,0,-1.58,0.30,-25.02
697,29.080,34.4869397,-80.5960150,144.9,55.53,-0.052,0.731,0.977,0,-1.69,0.42,-25.05
698,29.120,34.4869354,-80.5960107,144.9,55.62,-0.056,0.719,0.974,0,-1.94,0.53,-24.90
699,29.160,34.4869310,-80.5960065,144.9,55.58,-0.063,0.697,0.969,0,-2.23,0.43,-24.43
700,29.200,34.4869266,-80.5960025,144.9,55.50,-0.067,0.668,0.962,0,-2.57,0.11,-23.68
701,29.240,34.4869222,-80.5959984,144.9,55.70,-0.070,0.620,0.960,0,-3.10,-0.13,-22.64
702,29.280,34.4869176,-80.5959944,144.9,55.58,-0.069,0.560,0.965,0,-3.48,-0.31,-21.29
703,29.320,34.4869131,-80.5959905,144.8,55.60,-0.063,0.485,0.978,0,-3.97,-0.21,-19.38
704,29.360,34.4869085,-80.5959864,144.8,55.91,-0.053,0.398,0.996,0,-4.76,0.32,-17.04
705,29.400,34.4869040,-80.5959826,144.8,55.69,-0.040,0.302,1.011,0,-5.62,0.98,-14.27
706,29.440,34.4868994,-80.5959786,144.8,55.70,-0.020,0.190,1.017,0,-6.66,1.48,-10.89
707,29.480,34.4868950,-80.5959747,144.8,55.58,0.002,0.060,1.019,0,-7.93,1.69,-7.15
708,29.520,34.4868904,-80.5959709,144.8,55.15,0.025,-0.078,1.017,0,-9.09,1.40,-3.16
709,29.560,34.4868860,-80.5959668,144.8,54.93,0.045,-0.228,1.011,0,-10.14,0.72,1.18
710,29.600,34.4868817,-80.5959628,144.8,55.11,0.057,-0.396,1.014,0,-11.04,0.17,6.24
711,29.640,34.4868774,-80.5959585,144.8,55.09,0.063,-0.550,1.019,0,-11.42,-0.10,11.42
712,29.680,34.4868732,-80.5959543,144.7,54.84,0.065,-0.680,1.015,0,-11.22,-0.17,16.56
713,29.720,34.4868692,-80.5959498,144.7,54.97,0.067,-0.783,1.010,0,-10.57,-0.03,21.32
714,29.760,34.4868651,-80.5959453,144.7,54.65,0.071,-0.847,1.003,0,-9.44,0.08,25.36
715,29.800,34.4868612,-80.5959407,144.7,54.27,0.079,-0.870,0.994,0,-8.17,-0.02,28.22
716,29.840,34.4868574,-80.5959361,144.7,54.01,0.087,-0.875,0.990,0,-7.14,-0.15,30.15
717,29.880,34.4868537,-80.5959314,144.7,53.95,0.093,-0.869,0.995,0,-6.42,-0.20,31.27
718,29.920,34.4868501,-80.5959266,144.7,53.83,0.095,-0.857,1.002,0,-5.80,-0.11,31.69
719,30.000,34.4868431,-80.5959168,144.6,53.37,0.094,-0.834,1.004,0,-5.18,0.02,31.35
720,30.040,34.4868397,-80.5959118,144.6,53.11,0.090,-0.802,1.004,0,-4.63,0.19,30.58
721,30.080,34.4868365,-80.5959068,144.6,53.10,0.085,-0.759,1.002,0,-4.00,0.26,29.39
722,30.120,34.4868333,-80.5959017,144.6,52.87,0.079,-0.705,0.999,0,-3.25,0.26,27.84
723,30.160,34.4868302,-80.5958965,144.6,52.71,0.074,-0.638,0.998,0,-2.59,0.21,25.87
724,30.200,34.4868272,-80.5958913,144.6,52.61,0.069,-0.571,0.999,0,-2.02,0.22,23.78
725,30.240,34.4868243,-80.5958861,144.6,52.06,0.063,-0.501,1.000,0,-1.40,0.23,21.52
726,30.280,34.4868213,-80.5958809,144.6,51.99,0.057,-0.429,1.002,0,-0.86,0.36,19.23
727,30.320,34.4868185,-80.5958756,144.6,51.96,0.053,-0.352,1.002,0,-0.36,0.45,16.78
728,30.360,34.4868155,-80.5958705,144.5,51.81,0.047,-0.273,1.003,0,0.20,0.52,14.37
729,30.400,34.4868126,-80.5958653,144.5,51.71,0.040,-0.183,1.005,0,0.77,0.64,11.81
730,30.440,34.4868097,-80.5958601,144.5,51.62,0.032,-0.075,1.010,0,1.47,0.82,8.77
731,30.480,34.4868068,-80.5958550,144.5,51.67,0.021,0.046,1.012,0,2.25,0.96,5.30
732,30.520,34.4868039,-80.5958498,144.5,51.19,0.006,0.174,1.013,0,2.93,1.19,1.50
733,30.560,34.4868008,-80.5958448,144.5,51.29,-0.013,0.301,1.011,0,3.36,1.42,-2.60
734,30.600,34.4867977,-80.5958398,144.5,51.38,-0.038,0.416,1.005,0,3.40,1.54,-6.91
735,30.640,34.4867945,-80.5958349,144.5,51.55,-0.065,0.503,0.997,0,2.89,1.58,-10.72
736,30.680,34.4867911,-80.5958301,144.4,51.69,-0.092,0.557,0.990,0,1.99,1.49,-13.87
737,30.720,34.4867879,-80.5958252,144.4,51.88,-0.113,0.581,0.982,0,1.00,1.26,-16.23
738,30.760,34.4867844,-80.5958204,144.4,51.93,-0.131,0.584,0.976,0,0.09,1.00,-17.84
739,30.800,34.4867811,-80.5958156,144.4,51.80,-0.150,0.573,0.975,0,-0.51,0.84,-18.73
740,30.840,34.4867776,-80.5958108,144.4,51.87,-0.170,0.562,0.974,0,-0.69,0.75,-19.25
741,30.880,34.4867740,-80.5958062,144.4,52.25,-0.191,0.557,0.972,0,-0.60,0.76,-19.55
742,30.920,34.4867703,-80.5958015,144.4,52.53,-0.208,0.557,0.968,0,-0.55,0.74,-19.72
743,31.000,34.4867629,-80.5957924,144.4,52.82,-0.216,0.560,0.968,0,-0.47,0.58,-19.83
744,31.040,34.4867588,-80.5957879,144.3,53.19,-0.218,0.564,0.974,0,-0.52,0.47,-19.92
745,31.080,34.4867550,-80.5957835,144.3,53.33,-0.220,0.568,0.979,0,-0.60,0.45,-20.00
746,31.120,34.4867509,-80.5957790,144.3,53.39,-0.223,0.571,0.981,0,-0.78,0.56,-20.03
747,31.160,34.4867469,-80.5957747,144.3,53.72,-0.229,0.571,0.983,0,-1.01,0.82,-19.99
748,31.200,34.4867428,-80.5957703,144.3,54.33,-0.236,0.569,0.982,0,-1.33,1.04,-19.82
749,31.240,34.4867385,-80.5957660,144.3,54.76,-0.242,0.564,0.977,0,-1.72,1.10,-19.54
750,31.280,34.4867341,-80.5957618,144.3,54.82,-0.246,0.547,0.976,0,-2.37,1.12,-19.14
751,31.320,34.4867296,-80.5957577,144.3,55.02,-0.249,0.521,0.976,0,-2.97,1.03,-18.56
752,31.360,34.4867252,-80.5957536,144.3,55.37,-0.254,0.482,0.977,0,-3.61,0.96,-17.72
753,31.400,34.4867206,-80.5957495,144.2,55.81,-0.260,0.427,0.976,0,-4.38,0.92,-16.42
754,31.440,34.4867162,-80.5957454,144.2,56.25,-0.263,0.359,0.971,0,-5.15,0.82,-14.71
755,31.480,34.4867114,-80.5957412,144.2,56.75,-0.258,0.273,0.967,0,-6.03,0.65,-12.43
756,31.520,34.4867070,-80.5957371,144.2,56.85,-0.250,0.170,0.967,1,-7.04,0.56,-9.72
757,31.560,34.4867025,-80.5957328,144.2,56.73,-0.239,0.053,0.967,1,-7.97,0.35,-6.63
758,31.600,34.4866980,-80.5957286,144.2,56.85,-0.225,-0.073,0.968,1,-8.83,0.20,-3.21
759,31.640,34.4866936,-80.5957242,144.2,57.14,-0.210,-0.224,0.976,1,-9.77,0.13,0.94
760,31.680,34.4866891,-80.5957198,144.2,57.66,-0.197,-0.374,0.983,1,-10.39,0.09,5.38
761,31.720,34.4866846,-80.5957152,144.1,58.09,-0.179,-0.515,0.987,1,-10.60,0.01,10.03
762,31.760,34.4866803,-80.5957105,144.1,58.16,-0.159,-0.643,0.993,1,-10.30,0.04,14.82
763,31.800,34.4866760,-80.5957058,144.1,58.03,-0.139,-0.737,0.996,1,-9.48,0.16,19.15
764,31.840,34.4866719,-80.5957009,144.1,58.00,-0.124,-0.790,0.996,1,-8.37,0.27,22.55
765,31.880,34.4866677,-80.5956959,144.1,58.18,-0.113,-0.818,0.997,1,-7.29,0.36,25.07
766,31.920,34.4866637,-80.5956908,144.1,58.17,-0.107,-0.822,0.994,1,-6.28,0.49,26.70
767,32.000,34.4866557,-80.5956804,144.1,58.72,-0.104,-0.810,0.990,1,-5.61,0.53,27.37
768,32.040,34.4866518,-80.5956751,144.1,58.79,-0.102,-0.795,0.988,1,-5.14,0.49,27.47
769,32.080,34.4866480,-80.5956696,144.1,58.84,-0.099,-0.779,0.989,1,-4.76,0.41,27.17
770,32.120,34.4866443,-80.5956641,144.0,58.98,-0.097,-0.754,0.989,1,-4.34,0.41,26.62
771,32.160,34.4866407,-80.5956586,144.0,58.90,-0.096,-0.722,0.983,1,-3.96,0.38,25.82
772,32.200,34.4866371,-80.5956530,144.0,58.67,-0.099,-0.680,0.980,1,-3.58,0.31,24.80
773,32.240,34.4866336,-80.5956473,144.0,58.99,-0.103,-0.627,0.979,1,-3.03,0.16,23.37
774,32.280,34.4866302,-80.5956415,144.0,58.99,-0.108,-0.562,0.979,1,-2.26,0.13,21.61
775,32.320,34.4866268,-80.5956356,144.0,59.12,-0.107,-0.481,0.980,1,-1.29,0.06,19.43
776,32.360,34.4866233,-80.5956296,144.0,59.18,-0.112,-0.361,0.979,1,-0.05,0.18,16.26
777,32.440,34.4866165,-80.5956181,144.0,59.08,-0.115,-0.191,0.982,1,1.61,0.21,11.59
778,32.520,34.4866096,-80.5956066,143.9,58.92,-0.115,0.023,0.987,1,3.27,0.30,5.61
779,32.560,34.4866058,-80.5956008,143.9,59.23,-0.114,0.243,0.992,1,4.48,0.50,-0.67
780,32.600,34.4866020,-80.5955953,143.9,59.37,-0.117,0.444,1.000,1,4.95,0.79,-6.92
781,32.640,34.4865982,-80.5955896,143.9,59.58,-0.122,0.600,1.006,1,4.57,0.94,-12.48
782,32.680,34.4865942,-80.5955843,143.9,59.53,-0.134,0.694,1.000,1,3.42,1.13,-16.52
783,32.720,34.4865904,-80.5955788,143.9,59.65,-0.151,0.726,0.988,1,1.96,1.15,-18.99
784,32.760,34.4865862,-80.5955733,143.9,59.94,-0.168,0.734,0.976,1,0.71,0.88,-20.56
785,32.800,34.4865822,-80.5955680,143.9,60.08,-0.183,0.727,0.962,1,-0.21,0.54,-21.42
786,32.840,34.4865780,-80.5955626,143.9,60.45,-0.192,0.713,0.960,1,-0.70,0.40,-21.75
787,32.880,34.4865737,-80.5955575,143.9,60.54,-0.197,0.705,0.965,1,-0.93,0.46,-21.89
788,32.920,34.4865692,-80.5955523,143.8,60.72,-0.204,0.696,0.973,1,-1.19,0.77,-21.73
789,33.000,34.4865603,-80.5955422,143.8,61.05,-0.210,0.684,0.976,1,-1.62,1.03,-21.26
790,33.040,34.4865556,-80.5955372,143.8,61.63,-0.214,0.667,0.982,1,-2.13,1.16,-20.62
791,33.080,34.4865508,-80.5955322,143.8,62.26,-0.217,0.648,0.982,1,-2.63,1.11,-19.90
792,33.120,34.4865459,-80.5955274,143.8,62.24,-0.219,0.623,0.979,1,-3.18,1.02,-19.15
793,33.160,34.4865411,-80.5955226,143.8,62.21,-0.220,0.591,0.975,1,-3.61,0.89,-18.45
794,33.200,34.4865361,-80.5955178,143.8,62.35,-0.222,0.550,0.972,1,-3.91,0.83,-17.66
795,33.240,34.4865312,-80.5955130,143.8,62.65,-0.227,0.508,0.967,1,-4.19,0.77,-16.70
796,33.280,34.4865260,-80.5955084,143.8,62.92,-0.233,0.463,0.965,1,-4.43,0.63,-15.50
797,33.320,34.4865211,-80.5955037,143.8,63.26,-0.237,0.414,0.967,1,-4.70,0.51,-14.11
798,33.360,34.4865160,-80.5954989,143.7,63.58,-0.237,0.355,0.972,1,-5.01,0.45,-12.47
799,33.400,34.4865107,-80.5954943,143.7,63.75,-0.236,0.291,0.978,1,-5.27,0.55,-10.75
800,33.440,34.4865057,-80.5954896,143.7,64.04,-0.236,0.216,0.980,1,-5.57,0.74,-8.86
801,33.480,34.4865004,-80.5954850,143.7,64.49,-0.238,0.129,0.983,1,-6.01,0.94,-6.71
802,33.520,34.4864953,-80.5954802,143.7,64.53,-0.241,0.020,0.986,1,-6.64,1.08,-3.97
803,33.560,34.4864901,-80.5954754,143.7,64.83,-0.241,-0.104,0.987,1,-7.49,1.07,-0.82
804,33.600,34.4864848,-80.5954706,143.7,65.08,-0.238,-0.241,0.989,1,-8.40,0.95,2.79
805,33.640,34.4864797,-80.5954656,143.7,65.55,-0.230,-0.391,0.996,1,-9.18,0.80,7.00
806,33.680,34.4864747,-80.5954604,143.7,65.95,-0.216,-0.532,1.001,1,-9.54,0.70,11.27
807,33.720,34.4864698,-80.5954551,143.7,66.02,-0.203,-0.641,1.004,1,-9.27,0.67,15.18
808,33.760,34.4864647,-80.5954498,143.7,66.19,-0.192,-0.716,1.004,1,-8.55,0.67,18.51
809,33.800,34.4864600,-80.5954443,143.7,66.31,-0.185,-0.761,1.002,1,-7.64,0.70,21.08
810,33.840,34.4864552,-80.5954388,143.7,66.39,-0.179,-0.778,0.997,1,-6.72,0.67,22.72
811,33.880,34.4864505,-80.5954331,143.7,66.45,-0.175,-0.780,0.989,1,-6.02,0.58,23.68
812,33.920,34.4864457,-80.5954273,143.7,66.77,-0.170,-0.780,0.983,1,-5.51,0.42,24.12
813,34.000,34.4864366,-80.5954156,143.6,66.90,-0.165,-0.777,0.981,1,-5.15,0.30,24.22
814,34.040,34.4864322,-80.5954094,143.6,67.08,-0.159,-0.774,0.987,1,-4.87,0.30,24.10
815,34.080,34.4864278,-80.5954034,143.6,66.88,-0.156,-0.763,0.991,1,-4.55,0.50,23.77
816,34.120,34.4864233,-80.5953971,143.6,67.43,-0.157,-0.743,0.996,1,-4.17,0.77,23.21
817,34.160,34.4864190,-80.5953909,143.6,67.42,-0.163,-0.710,0.997,1,-3.75,0.99,22.34
818,34.200,34.4864148,-80.5953845,143.6,67.72,-0.170,-0.666,0.993,1,-3.26,1.06,21.13
819,34.240,34.4864108,-80.5953780,143.6,67.97,-0.177,-0.603,0.986,1,-2.58,0.87,19.42
820,34.280,34.4864066,-80.5953713,143.6,68.12,-0.180,-0.527,0.980,1,-1.79,0.58,17.37
821,34.320,34.4864025,-80.5953648,143.6,68.44,-0.180,-0.438,0.977,1,-0.87,0.33,15.03
822,34.360,34.4863982,-80.5953581,143.6,68.36,-0.175,-0.323,0.979,1,0.23,0.31,12.22
823,34.400,34.4863941,-80.5953516,143.6,68.24,-0.172,-0.191,0.985,1,1.37,0.45,9.05
824,34.440,34.4863899,-80.5953450,143.6,68.17,-0.170,-0.045,0.989,1,2.52,0.71,5.56
825,34.480,34.4863858,-80.5953385,143.5,68.36,-0.169,0.124,0.989,1,3.63,0.82,1.44
826,34.520,34.4863814,-80.5953320,143.5,68.50,-0.163,0.299,0.988,1,4.45,0.72,-2.99
827,34.560,34.4863770,-80.5953256,143.5,68.60,-0.153,0.455,0.983,1,4.75,0.42,-7.41
828,34.600,34.4863725,-80.5953191,143.5,68.76,-0.140,0.590,0.980,1,4.55,0.13,-11.63
829,34.640,34.4863678,-80.5953129,143.5,68.88,-0.124,0.692,0.980,1,3.83,-0.05,-15.35
830,34.680,34.4863631,-80.5953067,143.5,69.11,-0.112,0.750,0.982,1,2.74,0.00,-18.20
831,34.720,34.4863583,-80.5953007,143.5,69.04,-0.105,0.778,0.982,1,1.59,0.13,-20.16
832,34.760,34.4863535,-80.5952947,143.5,68.94,-0.103,0.787,0.981,1,0.51,0.28,-21.25
833,34.800,34.4863487,-80.5952886,143.5,68.67,-0.101,0.782,0.980,1,-0.31,0.35,-21.64
834,34.840,34.4863437,-80.5952829,143.5,68.83,-0.098,0.772,0.977,1,-0.97,0.32,-21.54
835,34.880,34.4863387,-80.5952770,143.5,69.03,-0.093,0.757,0.981,1,-1.53,0.31,-21.17
836,34.920,34.4863336,-80.5952713,143.5,69.01,-0.086,0.734,0.982,1,-2.07,0.43,-20.54
837,35.000,34.4863231,-80.5952602,143.4,69.08,-0.083,0.690,0.985,1,-2.72,0.52,-19.41
838,35.040,34.4863179,-80.5952547,143.4,69.31,-0.081,0.634,0.985,1,-3.48,0.57,-17.88
839,35.080,34.4863125,-80.5952494,143.4,69.40,-0.081,0.566,0.988,1,-4.29,0.61,-16.10
840,35.120,34.4863070,-80.5952439,143.4,69.37,-0.078,0.490,0.989,1,-5.05,0.63,-14.11
841,35.160,34.4863016,-80.5952386,143.4,69.25,-0.074,0.408,0.993,1,-5.69,0.64,-12.05
842,35.200,34.4862961,-80.5952334,143.4,69.26,-0.057,0.329,0.994,1,-6.10,0.66,-10.02
843,35.240,34.4862906,-80.5952281,143.4,69.39,-0.030,0.249,0.995,1,-6.35,0.57,-8.07
844,35.280,34.4862852,-80.5952228,143.3,69.25,0.007,0.173,0.996,1,-6.44,0.31,-6.15
845,35.320,34.4862798,-80.5952176,143.3,69.07,0.046,0.102,0.999,1,-6.42,0.02,-4.31
846,35.360,34.4862745,-80.5952123,143.3,68.49,0.079,0.037,1.007,1,-6.13,-0.12,-2.53
847,35.400,34.4862692,-80.5952070,143.3,68.20,0.097,-0.014,1.017,1,-5.67,0.01,-1.01
848,35.440,34.4862639,-80.5952018,143.3,68.00,0.101,-0.052,1.025,1,-5.12,0.40,0.29
849,35.480,34.4862587,-80.5951966,143.3,67.94,0.104,-0.077,1.029,1,-4.53,0.90,1.39
850,35.520,34.4862534,-80.5951914,143.3,67.76,0.118,-0.095,1.029,1,-4.07,1.17,2.26
851,35.560,34.4862482,-80.5951861,143.3,67.51,0.147,-0.104,1.030,1,-3.79,1.09,2.88
852,35.600,34.4862431,-80.5951809,143.2,66.88,0.191,-0.110,1.033,1,-3.66,0.80,3.34
853,35.640,34.4862382,-80.5951758,143.2,66.15,0.243,-0.119,1.040,1,-3.63,0.46,3.68
854,35.680,34.4862332,-80.5951707,143.2,65.55,0.298,-0.126,1.048,1,-3.60,0.31,3.96
855,35.720,34.4862283,-80.5951656,143.2,64.82,0.337,-0.132,1.055,1,-3.62,0.37,4.21
856,35.760,34.4862235,-80.5951605,143.2,64.23,0.353,-0.140,1.055,1,-3.60,0.66,4.47
857,35.800,34.4862187,-80.5951555,143.2,63.69,0.335,-0.144,1.055,1,-3.59,1.15,4.74
858,35.840,34.4862139,-80.5951505,143.2,63.29,0.293,-0.151,1.054,1,-3.59,1.72,5.01
859,35.880,34.4862093,-80.5951455,143.2,63.19,0.233,-0.158,1.049,1,-3.55,2.18,5.23
860,35.920,34.4862046,-80.5951405,143.2,63.27,0.169,-0.163,1.044,1,-3.40,2.37,5.40
861,36.000,34.4861952,-80.5951302,143.2,62.80,0.134,-0.168,1.041,1,-3.23,2.16,5.53
862,36.040,34.4861906,-80.5951252,143.2,62.48,0.140,-0.171,1.034,1,-3.03,1.56,5.62
863,36.080,34.4861861,-80.5951201,143.2,61.91,0.184,-0.172,1.028,1,-2.84,0.75,5.70
864,36.120,34.4861817,-80.5951151,143.2,61.31,0.246,-0.171,1.028,1,-2.75,-0.01,5.82
865,36.160,34.4861773,-80.5951101,143.2,60.43,0.313,-0.171,1.033,1,-2.77,-0.47,5.97
866,36.200,34.4861730,-80.5951053,143.2,59.55,0.360,-0.173,1.037,1,-2.91,-0.41,6.17
867,36.240,34.4861687,-80.5951004,143.2,59.03,0.376,-0.182,1.040,1,-3.17,0.05,6.45
868,36.280,34.4861645,-80.5950955,143.2,58.51,0.368,-0.195,1.038,1,-3.42,0.62,6.77
869,36.320,34.4861604,-80.5950907,143.2,57.94,0.347,-0.210,1.033,1,-3.65,1.12,7.15
870,36.360,34.4861563,-80.5950858,143.2,57.73,0.319,-0.228,1.030,1,-3.84,1.38,7.61
871,36.400,34.4861523,-80.5950809,143.2,57.37,0.288,-0.242,1.029,1,-3.90,1.39,8.10
872,36.440,34.4861483,-80.5950760,143.2,56.93,0.258,-0.250,1.023,1,-3.91,1.25,8.55
873,36.480,34.4861443,-80.5950712,143.2,56.65,0.225,-0.255,1.022,1,-3.92,1.12,8.93
874,36.520,34.4861403,-80.5950663,143.2,56.10,0.189,-0.256,1.019,1,-3.93,1.07,9.21
875,36.560,34.4861366,-80.5950614,143.2,55.92,0.155,-0.255,1.013,1,-3.96,1.10,9.37
876,36.600,34.4861328,-80.5950565,143.2,55.88,0.125,-0.257,1.008,1,-4.02,1.13,9.46
877,36.640,34.4861290,-80.5950516,143.2,55.43,0.099,-0.257,1.010,1,-4.05,1.16,9.54
878,36.680,34.4861251,-80.5950467,143.2,55.41,0.078,-0.259,1.013,1,-4.09,1.20,9.64
879,36.720,34.4861216,-80.5950418,143.2,55.08,0.064,-0.264,1.012,1,-4.11,1.18,9.75
880,36.760,34.4861180,-80.5950368,143.2,55.16,0.054,-0.268,1.011,1,-4.13,1.10,9.88
881,36.800,34.4861142,-80.5950319,143.1,54.90,0.046,-0.275,1.008,1,-4.25,1.05,10.06
882,36.840,34.4861106,-80.5950268,143.1,54.89,0.040,-0.293,1.007,1,-4.50,0.96,10.39
883,36.880,34.4861069,-80.5950218,143.1,54.75,0.032,-0.318,1.007,1,-4.84,0.90,10.95
884,36.920,34.4861035,-80.5950168,143.1,54.54,0.015,-0.363,1.009,1,-5.35,0.95,12.04
885,37.000,34.4860967,-80.5950067,143.1,54.72,-0.005,-0.429,1.006,1,-5.95,1.01,13.89
886,37.040,34.4860934,-80.5950015,143.1,54.62,-0.025,-0.504,1.000,1,-6.53,0.92,16.21
887,37.080,34.4860901,-80.5949962,143.1,54.88,-0.037,-0.578,0.990,1,-7.02,0.73,18.63
888,37.120,34.4860869,-80.5949908,143.1,54.54,-0.036,-0.648,0.985,1,-7.32,0.39,21.29
889,37.160,34.4860839,-80.5949854,143.1,54.62,-0.020,-0.705,0.985,1,-7.40,0.02,23.77
890,37.200,34.4860809,-80.5949799,143.1,54.64,0.003,-0.740,0.989,1,-7.26,-0.25,25.82
891,37.240,34.4860779,-80.5949743,143.1,54.35,0.031,-0.757,0.998,1,-6.99,-0.31,27.48
892,37.280,34.4860752,-80.5949687,143.1,53.99,0.053,-0.766,1.004,1,-6.63,-0.21,28.78
893,37.320,34.4860726,-80.5949631,143.1,53.56,0.066,-0.765,1.004,1,-6.26,-0.05,29.44
894,37.360,34.4860701,-80.5949574,143.1,53.24,0.074,-0.757,1.002,1,-5.89,0.01,29.63
895,37.400,34.4860676,-80.5949518,143.1,53.23,0.075,-0.750,1.004,1,-5.58,0.03,29.42
896,37.440,34.4860652,-80.5949459,143.1,53.23,0.073,-0.738,1.006,1,-5.24,0.09,28.90
897,37.480,34.4860629,-80.5949403,143.1,53.22,0.069,-0.714,1.004,1,-4.79,0.06,28.16
898,37.520,34.4860607,-80.5949344,143.1,53.09,0.062,-0.683,1.001,1,-4.33,0.14,27.19
899,37.560,34.4860586,-80.5949287,143.1,52.79,0.054,-0.644,0.995,1,-3.94,0.17,25.82
900,37.600,34.4860566,-80.5949228,143.0,52.69,0.046,-0.606,0.987,1,-3.69,0.06,24.27
901,37.640,34.4860546,-80.5949170,143.0,52.37,0.036,-0.586,0.983,1,-3.72,-0.09,22.74
902,37.680,34.4860528,-80.5949112,143.0,52.39,0.029,-0.584,0.990,1,-3.96,-0.20,21.55
903,37.720,34.4860510,-80.5949052,143.0,52.33,0.020,-0.604,0.997,1,-4.37,-0.16,21.14
904,37.760,34.4860493,-80.5948993,143.0,52.14,0.006,-0.643,1.001,1,-4.70,0.08,21.61
905,37.800,34.4860479,-80.5948934,143.0,52.14,-0.017,-0.682,0.990,1,-4.44,0.32,22.68
906,37.840,34.4860464,-80.5948873,143.0,52.32,-0.049,-0.701,0.965,1,-3.51,0.27,24.01
907,37.880,34.4860450,-80.5948812,143.0,52.58,-0.081,-0.710,0.941,1,-2.77,0.00,25.22
908,37.920,34.4860436,-80.5948751,143.0,52.89,-0.100,-0.719,0.939,1,-2.43,-0.57,26.16
909,38.000,34.4860413,-80.5948626,143.0,52.77,-0.103,-0.732,0.946,1,-2.24,-0.75,27.27
910,38.040,34.4860403,-80.5948563,143.0,52.69,-0.103,-0.737,0.958,1,-2.17,-0.64,28.25
911,38.080,34.4860394,-80.5948500,143.0,52.50,-0.102,-0.741,0.976,1,-2.50,-0.20,29.08
912,38.120,34.4860386,-80.5948438,142.9,52.52,-0.108,-0.741,0.993,1,-3.07,0.43,29.72
913,38.160,34.4860377,-80.5948375,142.9,52.98,-0.125,-0.737,0.990,1,-3.51,0.92,29.97
914,38.200,34.4860371,-80.5948311,142.9,53.19,-0.146,-0.724,0.977,1,-3.65,0.84,29.65
915,38.240,34.4860365,-80.5948247,142.9,53.57,-0.160,-0.708,0.962,1,-3.76,0.44,29.02
916,38.280,34.4860361,-80.5948182,142.9,53.80,-0.166,-0.691,0.946,1,-3.81,-0.33,28.12
917,38.320,34.4860356,-80.5948117,142.9,54.03,-0.162,-0.681,0.940,1,-3.78,-1.17,27.27
918,38.360,34.4860353,-80.5948052,142.9,53.81,-0.152,-0.675,0.949,1,-3.86,-1.56,26.68
919,38.400,34.4860350,-80.5947988,142.8,53.83,-0.146,-0.674,0.965,1,-4.17,-1.31,26.41
920,38.440,34.4860349,-80.5947922,142.8,54.10,-0.142,-0.679,0.981,1,-4.45,-0.67,26.37
921,38.480,34.4860347,-80.5947857,142.8,54.36,-0.146,-0.686,0.998,1,-4.71,0.28,26.46
922,38.520,34.4860349,-80.5947791,142.8,54.39,-0.156,-0.692,1.004,1,-4.82,1.18,26.47
923,38.560,34.4860351,-80.5947725,142.8,54.76,-0.168,-0.697,1.010,1,-4.74,1.75,26.36
924,38.600,34.4860353,-80.5947659,142.8,54.63,-0.176,-0.704,1.017,1,-4.69,1.95,26.17
925,38.640,34.4860357,-80.5947593,142.7,54.71,-0.179,-0.711,1.026,1,-4.71,2.00,26.08
926,38.680,34.4860362,-80.5947526,142.7,55.18,-0.179,-0.719,1.028,1,-4.73,1.97,26.18
927,38.720,34.4860368,-80.5947459,142.7,55.27,-0.182,-0.720,1.020,1,-4.72,1.88,26.42
928,38.760,34.4860375,-80.5947393,142.7,55.32,-0.187,-0.715,1.000,1,-4.59,1.49,26.66
929,38.800,34.4860383,-80.5947326,142.7,55.75,-0.194,-0.707,0.977,1,-4.49,0.88,26.82
930,38.840,34.4860391,-80.5947258,142.7,56.10,-0.195,-0.709,0.970,1,-4.72,0.17,26.93
931,38.880,34.4860401,-80.5947191,142.7,56.24,-0.183,-0.718,0.981,1,-4.92,-0.23,27.22
932,38.920,34.4860411,-80.5947124,142.7,56.11,-0.167,-0.735,0.997,1,-5.14,0.00,27.83
933,39.000,34.4860435,-80.5946991,142.6,56.11,-0.168,-0.747,1.010,1,-5.24,0.73,28.45
934,39.040,34.4860449,-80.5946925,142.6,56.31,-0.173,-0.754,1.013,1,-5.26,1.32,28.75
935,39.080,34.4860464,-80.5946858,142.6,56.87,-0.181,-0.760,1.015,1,-5.13,1.68,28.71
936,39.120,34.4860480,-80.5946791,142.6,57.09,-0.189,-0.763,1.014,1,-4.82,1.68,28.33
937,39.160,34.4860496,-80.5946724,142.6,57.11,-0.192,-0.761,1.016,1,-4.32,1.38,27.70
938,39.200,34.4860514,-80.5946657,142.6,57.10,-0.182,-0.757,1.022,1,-3.89,1.26,27.14
939,39.240,34.4860533,-80.5946593,142.6,57.33,-0.175,-0.748,1.025,1,-3.50,1.49,26.76
940,39.280,34.4860554,-80.5946527,142.6,57.61,-0.177,-0.729,1.024,1,-3.25,1.81,26.38
941,39.320,34.4860575,-80.5946461,142.6,57.92,-0.187,-0.712,1.016,1,-3.35,2.00,25.92
942,39.360,34.4860597,-80.5946395,142.6,58.16,-0.200,-0.697,1.002,1,-3.54,1.96,25.42
943,39.400,34.4860619,-80.5946329,142.6,58.35,-0.207,-0.688,0.991,1,-3.78,1.52,24.88
944,39.440,34.4860643,-80.5946265,142.6,58.76,-0.211,-0.686,0.992,1,-4.05,0.93,24.55
945,39.480,34.4860670,-80.5946200,142.6,59.10,-0.211,-0.692,1.002,1,-4.33,0.67,24.54
946,39.520,34.4860696,-80.5946135,142.6,58.99,-0.207,-0.702,1.018,1,-4.54,0.87,24.88
947,39.560,34.4860722,-80.5946071,142.6,59.09,-0.204,-0.715,1.034,1,-4.68,1.37,25.42
948,39.600,34.4860751,-80.5946008,142.6,59.20,-0.214,-0.721,1.036,1,-4.60,2.03,25.94
949,39.640,34.4860780,-80.5945944,142.6,59.75,-0.231,-0.720,1.026,1,-4.34,2.48,26.18
950,39.680,34.4860808,-80.5945879,142.6,60.27,-0.247,-0.710,1.001,1,-4.07,2.33,26.04
951,39.720,34.4860840,-80.5945817,142.6,60.58,-0.257,-0.699,0.969,1,-3.86,1.42,25.50
952,39.760,34.4860872,-80.5945754,142.6,60.75,-0.256,-0.692,0.951,1,-3.82,0.29,24.97
953,39.800,34.4860905,-80.5945691,142.6,60.87,-0.245,-0.699,0.953,1,-4.12,-0.55,24.72
954,39.840,34.4860939,-80.5945629,142.6,60.84,-0.225,-0.714,0.968,1,-4.40,-0.93,24.88
955,39.880,34.4860973,-80.5945569,142.6,60.78,-0.212,-0.727,0.987,1,-4.57,-0.44,25.51
956,39.920,34.4861008,-80.5945510,142.6,61.08,-0.220,-0.735,0.996,1,-4.52,0.52,26.13
957,40.000,34.4861083,-80.5945390,142.6,61.96,-0.237,-0.736,0.995,1,-4.33,1.01,26.00
958,40.040,34.4861122,-80.5945330,142.6,62.50,-0.249,-0.730,0.993,1,-3.94,0.93,25.35
959,40.080,34.4861160,-80.5945271,142.6,62.67,-0.257,-0.717,0.992,1,-3.55,0.77,24.41
960,40.120,34.4861202,-80.5945213,142.6,62.86,-0.260,-0.702,0.993,1,-3.27,0.44,23.22
961,40.160,34.4861243,-80.5945156,142.6,62.88,-0.250,-0.680,1.001,1,-3.01,0.36,22.16
962,40.200,34.4861285,-80.5945100,142.6,62.92,-0.249,-0.653,1.014,1,-2.95,0.91,21.35
963,40.240,34.4861328,-80.5945045,142.6,63.25,-0.260,-0.624,1.022,1,-3.00,1.68,20.53
964,40.280,34.4861371,-80.5944988,142.5,63.51,-0.273,-0.595,1.025,1,-3.06,2.34,19.55
965,40.320,34.4861415,-80.5944931,142.5,64.09,-0.285,-0.567,1.023,1,-3.08,2.58,18.48
966,40.360,34.4861461,-80.5944876,142.5,64.33,-0.295,-0.542,1.012,1,-3.11,2.35,17.40
967,40.400,34.4861507,-80.5944821,142.5,64.76,-0.295,-0.521,1.000,1,-3.13,1.75,16.56
968,40.440,34.4861553,-80.5944768,142.5,64.97,-0.286,-0.504,0.995,1,-3.22,1.06,16.04
969,40.480,34.4861600,-80.5944713,142.5,65.17,-0.276,-0.490,0.992,1,-3.40,0.62,15.86
970,40.520,34.4861648,-80.5944658,142.5,65.37,-0.270,-0.476,0.989,1,-3.59,0.63,15.89
971,40.560,34.4861695,-80.5944605,142.5,65.41,-0.272,-0.460,0.987,1,-3.70,0.81,15.79
972,40.600,34.4861746,-80.5944554,142.5,65.93,-0.280,-0.443,0.982,1,-3.74,0.91,15.43
973,40.640,34.4861797,-80.5944500,142.5,66.47,-0.287,-0.421,0.977,1,-3.62,0.87,14.79
974,40.680,34.4861847,-80.5944447,142.4,66.74,-0.289,-0.398,0.981,1,-3.38,0.74,13.94
975,40.720,34.4861898,-80.5944395,142.4,66.97,-0.284,-0.368,0.988,1,-3.04,0.64,12.93
976,40.760,34.4861950,-80.5944342,142.4,67.24,-0.280,-0.333,0.996,1,-2.74,0.83,11.95
977,40.800,34.4862001,-80.5944291,142.4,67.25,-0.279,-0.296,1.004,1,-2.46,1.16,10.95
978,40.840,34.4862053,-80.5944239,142.4,67.62,-0.282,-0.258,1.008,1,-2.26,1.54,9.88
979,40.880,34.4862106,-80.5944186,142.4,68.10,-0.289,-0.218,1.004,1,-2.16,1.66,8.75
980,40.920,34.4862159,-80.5944134,142.4,68.50,-0.291,-0.179,1.003,1,-2.15,1.68,7.59
981,41.000,34.4862266,-80.5944030,142.4,69.02,-0.291,-0.136,0.996,1,-2.18,1.44,6.34
982,41.040,34.4862319,-80.5943976,142.4,69.24,-0.290,-0.095,0.987,1,-2.21,1.17,5.19
983,41.080,34.4862374,-80.5943923,142.3,69.62,-0.289,-0.060,0.978,1,-2.16,0.80,4.15
984,41.120,34.4862427,-80.5943872,142.3,69.71,-0.286,-0.026,0.971,1,-2.13,0.59,3.21
985,41.160,34.4862482,-80.5943817,142.3,70.10,-0.285,0.000,0.962,1,-2.08,0.40,2.35
986,41.200,34.4862536,-80.5943765,142.3,70.37,-0.280,0.022,0.957,1,-1.94,0.29,1.57
987,41.240,34.4862591,-80.5943710,142.3,70.83,-0.275,0.042,0.960,1,-1.92,0.30,0.87
988,41.280,34.4862646,-80.5943657,142.3,71.00,-0.269,0.058,0.961,1,-2.03,0.31,0.29
989,41.320,34.4862702,-80.5943602,142.3,71.29,-0.259,0.071,0.963,1,-2.26,0.28,-0.15
990,41.360,34.4862757,-80.5943547,142.3,71.56,-0.246,0.080,0.967,1,-2.60,0.24,-0.43
991,41.400,34.4862812,-80.5943492,142.3,71.62,-0.229,0.081,0.968,1,-3.05,0.21,-0.54
992,41.440,34.4862867,-80.5943435,142.3,71.59,-0.207,0.081,0.970,1,-3.35,0.12,-0.60
993,41.480,34.4862922,-80.5943380,142.3,71.66,-0.183,0.082,0.979,1,-3.55,0.13,-0.66
994,41.520,34.4862978,-80.5943325,142.3,71.76,-0.161,0.084,0.991,1,-3.53,0.32,-0.81
995,41.560,34.4863033,-80.5943269,142.3,71.92,-0.143,0.098,1.009,1,-3.31,0.76,-1.14
996,41.600,34.4863089,-80.5943214,142.3,72.14,-0.133,0.118,1.022,1,-3.07,1.28,-1.63
997,41.640,34.4863144,-80.5943157,142.3,72.24,-0.124,0.144,1.022,1,-2.86,1.64,-2.23
998,41.680,34.4863199,-80.5943100,142.3,72.22,-0.114,0.174,1.008,1,-2.76,1.53,-2.94
999,41.720,34.4863252,-80.5943044,142.3,72.12,-0.097,0.203,0.991,1,-2.80,0.89,-3.75
1000,41.760,34.4863308,-80.5942987,142.3,72.09,-0.073,0.225,0.978,1,-2.97,0.16,-4.53
1001,41.800,34.4863361,-80.5942929,142.3,72.10,-0.049,0.242,0.979,1,-3.07,-0.29,-5.27
1002,41.840,34.4863416,-80.5942872,142.3,72.00,-0.031,0.259,0.989,1,-3.16,-0.13,-5.89
1003,41.880,34.4863469,-80.5942814,142.3,71.67,-0.020,0.272,0.999,1,-3.34,0.40,-6.34
1004,41.920,34.4863522,-80.5942755,142.3,71.51,-0.022,0.282,1.005,1,-3.54,0.95,-6.57
1005,42.000,34.4863627,-80.5942638,142.3,71.85,-0.025,0.291,0.997,1,-3.84,0.94,-6.77
1006,42.040,34.4863679,-80.5942578,142.3,71.78,-0.027,0.298,0.985,1,-4.07,0.65,-6.99
1007,42.080,34.4863732,-80.5942520,142.3,71.68,-0.022,0.304,0.976,1,-4.21,0.15,-7.29
1008,42.120,34.4863783,-80.5942459,142.3,71.43,-0.017,0.310,0.974,1,-4.21,-0.17,-7.69
1009,42.160,34.4863834,-80.5942399,142.3,71.33,-0.011,0.316,0.975,1,-4.00,-0.14,-8.17
1010,42.200,34.4863884,-80.5942339,142.3,71.21,-0.019,0.326,0.984,1,-3.64,0.30,-8.59
1011,42.240,34.4863935,-80.5942278,142.3,71.16,-0.037,0.337,0.991,1,-3.28,0.74,-8.92
1012,42.280,34.4863985,-80.5942218,142.3,71.18,-0.062,0.350,0.996,1,-3.01,1.11,-9.10
1013,42.320,34.4864035,-80.5942156,142.3,71.60,-0.085,0.363,1.001,1,-2.88,1.35,-9.19
1014,42.360,34.4864085,-80.5942094,142.3,71.64,-0.102,0.373,1.004,1,-2.84,1.35,-9.28
1015,42.400,34.4864134,-80.5942030,142.3,71.80,-0.114,0.382,1.006,1,-2.79,1.35,-9.48
1016,42.440,34.4864182,-80.5941967,142.3,71.65,-0.127,0.396,1.006,1,-2.57,1.41,-9.80
1017,42.480,34.4864231,-80.5941905,142.3,71.56,-0.142,0.419,1.000,1,-2.12,1.45,-10.32
1018,42.520,34.4864279,-80.5941840,142.3,71.67,-0.156,0.455,0.991,1,-1.61,1.34,-11.08
1019,42.560,34.4864327,-80.5941775,142.3,72.21,-0.164,0.509,0.988,1,-1.08,1.21,-12.26
1020,42.600,34.4864373,-80.5941709,142.3,72.37,-0.164,0.571,0.992,1,-0.58,1.09,-13.80
1021,42.640,34.4864419,-80.5941641,142.2,72.50,-0.158,0.637,1.002,1,-0.27,1.16,-15.64
1022,42.680,34.4864462,-80.5941572,142.2,72.52,-0.154,0.695,1.018,1,-0.10,1.46,-17.65
1023,42.720,34.4864507,-80.5941503,142.2,72.42,-0.151,0.743,1.031,1,-0.08,1.81,-19.44
1024,42.760,34.4864548,-80.5941434,142.2,72.63,-0.154,0.774,1.037,1,-0.21,2.13,-20.77
1025,42.800,34.4864592,-80.5941362,142.2,72.91,-0.160,0.793,1.034,1,-0.50,2.23,-21.59
1026,42.840,34.4864633,-80.5941290,142.2,73.11,-0.164,0.800,1.025,1,-0.84,2.07,-21.96
1027,42.880,34.4864675,-80.5941218,142.2,73.22,-0.166,0.797,1.009,1,-1.27,1.66,-21.93
1028,42.920,34.4864715,-80.5941144,142.2,73.15,-0.170,0.784,0.986,1,-1.67,1.08,-21.60
1029,43.000,34.4864793,-80.5940995,142.2,73.68,-0.169,0.770,0.960,1,-2.00,0.27,-21.12
1030,43.040,34.4864830,-80.5940919,142.1,73.77,-0.165,0.761,0.943,1,-2.06,-0.42,-20.74
1031,43.080,34.4864867,-80.5940842,142.1,73.85,-0.158,0.761,0.942,1,-1.98,-0.75,-20.60
1032,43.120,34.4864903,-80.5940765,142.1,73.67,-0.150,0.765,0.955,1,-1.62,-0.55,-20.71
1033,43.160,34.4864937,-80.5940687,142.1,73.72,-0.145,0.783,0.980,1,-1.21,0.18,-21.07
1034,43.200,34.4864972,-80.5940608,142.1,73.81,-0.149,0.795,1.007,1,-0.92,1.23,-21.39
1035,43.240,34.4865004,-80.5940529,142.1,74.03,-0.159,0.800,1.024,1,-0.96,2.10,-21.37
1036,43.280,34.4865037,-80.5940449,142.1,74.29,-0.168,0.787,1.025,1,-1.35,2.42,-20.77
1037,43.320,34.4865068,-80.5940366,142.1,74.52,-0.171,0.759,1.024,1,-2.06,2.22,-19.70
1038,43.360,34.4865099,-80.5940285,142.1,74.52,-0.166,0.710,1.019,1,-2.94,1.75,-18.31
1039,43.400,34.4865128,-80.5940203,142.1,74.49,-0.155,0.644,1.013,1,-3.83,1.31,-16.72
1040,43.440,34.4865156,-80.5940119,142.1,74.54,-0.144,0.546,1.014,1,-4.79,1.20,-14.71
1041,43.480,34.4865186,-80.5940038,142.0,74.61,-0.137,0.430,1.018,1,-5.60,1.36,-12.35
1042,43.520,34.4865216,-80.5939954,142.0,74.85,-0.132,0.297,1.022,1,-6.40,1.66,-9.43
1043,43.560,34.4865246,-80.5939872,142.0,74.79,-0.130,0.148,1.031,1,-7.17,1.97,-5.89
1044,43.600,34.4865275,-80.5939789,142.0,74.80,-0.127,-0.004,1.043,1,-7.84,2.26,-1.89
1045,43.640,34.4865305,-80.5939707,142.0,74.79,-0.123,-0.151,1.055,1,-8.10,2.37,2.28
1046,43.680,34.4865337,-80.5939624,142.0,74.92,-0.115,-0.274,1.063,1,-7.86,2.36,6.07
1047,43.720,34.4865368,-80.5939543,142.0,75.12,-0.104,-0.362,1.065,1,-6.99,2.26,9.09
1048,43.760,34.4865402,-80.5939461,142.1,75.10,-0.090,-0.406,1.064,1,-5.74,2.17,11.03
1049,43.800,34.4865435,-80.5939380,142.1,74.88,-0.075,-0.410,1.056,1,-4.25,2.04,11.79
1050,43.840,34.4865468,-80.5939298,142.1,74.83,-0.059,-0.368,1.037,1,-2.83,1.78,11.31
1051,43.880,34.4865502,-80.5939219,142.1,74.54,-0.045,-0.298,1.011,1,-1.65,1.26,9.75
1052,43.920,34.4865535,-80.5939138,142.1,74.36,-0.029,-0.190,0.978,1,-0.74,0.27,7.07
1053,44.000,34.4865599,-80.5938978,142.1,74.26,-0.003,-0.055,0.961,1,-0.10,-0.64,3.44
1054,44.040,34.4865632,-80.5938896,142.1,74.04,0.021,0.077,0.960,1,0.17,-1.02,-0.29
1055,44.080,34.4865664,-80.5938815,142.1,73.78,0.048,0.198,0.969,1,0.29,-0.81,-3.83
1056,44.120,34.4865694,-80.5938736,142.1,73.31,0.079,0.299,0.988,1,0.24,-0.22,-6.81
1057,44.160,34.4865724,-80.5938654,142.1,73.05,0.119,0.367,1.012,1,0.00,0.40,-8.97
1058,44.200,34.4865753,-80.5938575,142.1,72.51,0.161,0.406,1.027,1,-0.44,0.64,-10.26
1059,44.240,34.4865781,-80.5938494,142.1,71.94,0.208,0.426,1.037,1,-0.94,0.46,-11.14
1060,44.280,34.4865808,-80.5938415,142.1,71.28,0.244,0.433,1.041,1,-1.36,0.18,-11.73
1061,44.320,34.4865835,-80.5938336,142.1,70.79,0.259,0.430,1.037,1,-1.62,0.11,-12.06
1062,44.360,34.4865860,-80.5938257,142.1,70.32,0.253,0.427,1.028,1,-1.54,0.36,-12.15
1063,44.400,34.4865887,-80.5938178,142.1,69.94,0.228,0.426,1.013,1,-1.26,0.75,-12.05
1064,44.440,34.4865911,-80.5938099,142.1,69.85,0.196,0.428,1.001,1,-0.92,1.04,-11.72
1065,44.480,34.4865935,-80.5938020,142.1,69.69,0.169,0.433,1.001,1,-0.71,1.12,-11.29
1066,44.520,34.4865958,-80.5937941,142.1,69.35,0.156,0.437,1.010,1,-0.64,1.07,-10.86
1067,44.560,34.4865981,-80.5937862,142.1,69.04,0.148,0.435,1.021,1,-0.85,1.10,-10.50
1068,44.600,34.4866003,-80.5937784,142.2,68.61,0.147,0.429,1.032,1,-1.21,1.18,-10.29
1069,44.640,34.4866024,-80.5937705,142.2,68.08,0.146,0.424,1.035,1,-1.44,1.30,-10.24
1070,44.680,34.4866045,-80.5937627,142.2,67.85,0.139,0.420,1.029,1,-1.57,1.41,-10.31
1071,44.720,34.4866064,-80.5937548,142.2,67.68,0.130,0.423,1.017,1,-1.49,1.28,-10.58
1072,44.760,34.4866084,-80.5937469,142.2,67.63,0.119,0.439,1.007,1,-1.25,1.00,-11.08
1073,44.800,34.4866103,-80.5937392,142.2,67.35,0.106,0.460,1.002,1,-0.96,0.85,-11.74
1074,44.840,34.4866121,-80.5937314,142.2,67.07,0.086,0.486,1.001,1,-0.75,0.81,-12.58
1075,44.880,34.4866138,-80.5937236,142.2,66.86,0.053,0.510,1.002,1,-0.71,0.96,-13.48
1076,44.920,34.4866153,-80.5937158,142.2,66.90,0.004,0.532,0.998,1,-0.79,1.26,-14.24
1077,45.000,34.4866184,-80.5937000,142.2,67.25,-0.049,0.543,0.989,1,-0.95,1.33,-14.71
1078,45.040,34.4866200,-80.5936919,142.3,67.52,-0.103,0.551,0.976,1,-1.15,1.15,-14.98
1079,45.080,34.4866213,-80.5936839,142.3,67.72,-0.147,0.551,0.967,1,-1.35,0.83,-15.07
1080,45.120,34.4866225,-80.5936758,142.3,67.86,-0.178,0.551,0.962,1,-1.39,0.49,-15.07
1081,45.160,34.4866237,-80.5936677,142.3,68.17,-0.195,0.543,0.965,1,-1.54,0.40,-15.05
1082,45.200,34.4866249,-80.5936595,142.3,68.08,-0.205,0.534,0.970,1,-1.68,0.57,-14.98
1083,45.240,34.4866260,-80.5936514,142.3,68.16,-0.215,0.521,0.976,1,-1.97,0.86,-14.75
1084,45.280,34.4866269,-80.5936432,142.3,68.50,-0.223,0.500,0.983,1,-2.42,1.17,-14.23
1085,45.320,34.4866280,-80.5936349,142.3,68.72,-0.232,0.465,0.989,1,-3.08,1.37,-13.32
1086,45.360,34.4866288,-80.5936266,142.3,69.06,-0.238,0.414,0.994,1,-3.82,1.40,-12.08
1087,45.400,34.4866297,-80.5936183,142.4,69.28,-0.242,0.352,1.001,1,-4.55,1.40,-10.55
1088,45.440,34.4866305,-80.5936100,142.4,69.42,-0.248,0.275,1.000,1,-5.25,1.40,-8.76
1089,45.480,34.4866315,-80.5936016,142.4,69.63,-0.253,0.179,0.992,1,-5.93,1.32,-6.55
1090,45.520,34.4866323,-80.5935932,142.4,69.82,-0.255,0.077,0.984,1,-6.57,1.15,-4.12
1091,45.560,34.4866333,-80.5935848,142.4,69.93,-0.255,-0.036,0.974,1,-7.26,0.89,-1.37
1092,45.600,34.4866342,-80.5935764,142.4,70.29,-0.253,-0.166,0.970,1,-8.01,0.64,1.88
1093,45.640,34.4866353,-80.5935681,142.4,70.46,-0.243,-0.302,0.971,1,-8.63,0.42,5.37
1094,45.680,34.4866365,-80.5935597,142.4,70.55,-0.228,-0.425,0.980,1,-8.77,0.39,8.84
1095,45.720,34.4866377,-80.5935511,142.4,70.74,-0.215,-0.530,0.991,1,-8.58,0.50,12.20
1096,45.760,34.4866390,-80.5935427,142.4,70.78,-0.199,-0.606,1.002,1,-7.88,0.75,15.04
1097,45.800,34.4866406,-80.5935343,142.5,70.94,-0.185,-0.643,1.007,1,-6.99,1.00,17.03
1098,45.840,34.4866420,-80.5935259,142.5,71.06,-0.174,-0.657,1.014,1,-6.26,1.20,18.26
1099,45.880,34.4866437,-80.5935176,142.5,71.06,-0.168,-0.654,1.011,1,-5.67,1.26,18.78
1100,45.920,34.4866453,-80.5935092,142.5,71.04,-0.163,-0.642,1.003,1,-5.34,1.06,18.64
1101,46.000,34.4866491,-80.5934925,142.5,71.63,-0.161,-0.618,0.992,1,-4.96,0.71,18.09
1102,46.040,34.4866511,-80.5934841,142.5,71.64,-0.159,-0.589,0.979,1,-4.34,0.32,17.24
1103,46.080,34.4866531,-80.5934758,142.5,71.71,-0.157,-0.547,0.966,1,-3.43,0.02,16.14
1104,46.120,34.4866553,-80.5934675,142.6,71.72,-0.149,-0.493,0.962,1,-2.47,-0.13,14.79
1105,46.160,34.4866573,-80.5934592,142.6,71.90,-0.138,-0.428,0.962,1,-1.34,-0.12,13.22
1106,46.200,34.4866595,-80.5934509,142.6,71.85,-0.119,-0.348,0.969,1,-0.24,-0.08,11.28
1107,46.240,34.4866616,-80.5934426,142.6,71.80,-0.095,-0.255,0.979,1,0.70,-0.06,9.11
1108,46.280,34.4866638,-80.5934345,142.6,71.63,-0.067,-0.154,0.987,1,1.55,-0.15,6.72
1109,46.320,34.4866658,-80.5934261,142.6,71.49,-0.032,-0.035,0.991,1,2.30,-0.34,3.96
1110,46.360,34.4866680,-80.5934180,142.6,71.41,0.003,0.086,0.989,1,2.86,-0.58,1.04
1111,46.400,34.4866699,-80.5934096,142.6,71.30,0.038,0.202,0.986,1,3.16,-0.77,-1.88
1112,46.440,34.4866718,-80.5934015,142.6,70.93,0.069,0.309,0.988,1,3.14,-0.81,-4.80
1113,46.480,34.4866737,-80.5933932,142.7,70.53,0.096,0.404,0.990,1,2.90,-0.65,-7.67
1114,46.520,34.4866754,-80.5933849,142.7,70.32,0.110,0.473,0.993,1,2.38,-0.36,-10.10
1115,46.560,34.4866772,-80.5933767,142.7,70.02,0.119,0.523,0.996,1,1.74,-0.03,-12.07
1116,46.600,34.4866787,-80.5933685,142.7,69.61,0.119,0.556,0.992,1,0.96,0.21,-13.49
1117,46.640,34.4866803,-80.5933603,142.7,69.54,0.117,0.571,0.983,1,0.22,0.21,-14.37
1118,46.680,34.4866816,-80.5933522,142.7,69.41,0.117,0.579,0.979,1,-0.43,0.05,-14.77
1119,46.720,34.4866830,-80.5933439,142.7,69.15,0.119,0.577,0.978,1,-1.04,-0.08,-14.92
1120,46.760,34.4866842,-80.5933359,142.7,68.75,0.119,0.575,0.978,1,-1.45,-0.07,-14.95
1121,46.800,34.4866854,-80.5933276,142.7,68.58,0.117,0.569,0.983,1,-1.83,0.06,-14.94
1122,46.840,34.4866865,-80.5933196,142.8,68.04,0.109,0.563,0.987,1,-2.14,0.32,-14.86
1123,46.880,34.4866876,-80.5933115,142.8,67.86,0.091,0.555,0.987,1,-2.52,0.59,-14.68
1124,46.920,34.4866886,-80.5933031,142.8,67.83,0.068,0.539,0.990,1,-2.84,0.79,-14.35
1125,47.000,34.4866903,-80.5932870,142.8,67.75,0.045,0.516,0.997,1,-3.21,0.95,-13.88
1126,47.040,34.4866911,-80.5932787,142.8,67.71,0.021,0.482,0.998,1,-3.44,1.07,-13.25
1127,47.080,34.4866918,-80.5932707,142.8,67.50,-0.001,0.443,0.999,1,-3.70,1.15,-12.47
1128,47.120,34.4866924,-80.5932626,142.8,67.38,-0.025,0.391,0.996,1,-4.03,1.15,-11.48
1129,47.160,34.4866930,-80.5932545,142.8,67.31,-0.059,0.333,0.989,1,-4.40,1.14,-10.18
1130,47.200,34.4866935,-80.5932464,142.9,67.55,-0.099,0.272,0.984,1,-4.80,1.08,-8.67
1131,47.240,34.4866942,-80.5932381,142.9,68.05,-0.143,0.214,0.981,1,-5.15,1.15,-7.05
1132,47.280,34.4866948,-80.5932299,142.9,68.27,-0.183,0.158,0.978,1,-5.41,1.29,-5.44
1133,47.320,34.4866954,-80.5932218,142.9,68.34,-0.219,0.100,0.973,1,-5.58,1.37,-3.82
1134,47.360,34.4866960,-80.5932134,142.9,68.65,-0.245,0.041,0.970,1,-5.77,1.34,-2.30
1135,47.400,34.4866967,-80.5932052,142.9,68.86,-0.256,-0.023,0.970,1,-5.98,1.12,-0.75
1136,47.440,34.4866973,-80.5931967,142.9,69.19,-0.259,-0.104,0.978,1,-6.23,0.90,1.11
1137,47.480,34.4866980,-80.5931885,142.9,69.42,-0.258,-0.196,0.989,1,-6.57,0.86,3.27
1138,47.520,34.4866987,-80.5931801,142.9,69.54,-0.251,-0.291,0.999,1,-6.89,1.01,5.71
1139,47.560,34.4866996,-80.5931717,142.9,69.52,-0.248,-0.385,1.005,1,-7.17,1.25,8.34
1140,47.600,34.4867006,-80.5931634,142.9,69.89,-0.247,-0.478,1.003,1,-7.41,1.40,11.14
1141,47.640,34.4867016,-80.5931550,142.9,70.24,-0.243,-0.555,0.998,1,-7.53,1.32,13.71
1142,47.680,34.4867028,-80.5931464,142.9,70.65,-0.238,-0.619,0.989,1,-7.49,1.02,16.02
1143,47.720,34.4867040,-80.5931380,142.9,70.71,-0.235,-0.670,0.983,1,-7.28,0.72,18.05
1144,47.760,34.4867054,-80.5931296,142.9,70.71,-0.228,-0.707,0.978,1,-7.02,0.41,19.68
1145,47.800,34.4867068,-80.5931212,142.9,70.82,-0.223,-0.729,0.974,1,-6.71,0.21,20.87
1146,47.840,34.4867083,-80.5931128,142.9,71.04,-0.222,-0.746,0.971,1,-6.45,0.12,21.71
1147,47.880,34.4867099,-80.5931045,142.9,71.23,-0.222,-0.754,0.969,1,-6.20,0.09,22.24
1148,47.920,34.4867117,-80.5930961,142.9,71.52,-0.221,-0.757,0.967,1,-5.97,0.04,22.40
1149,48.000,34.4867156,-80.5930793,143.0,72.11,-0.219,-0.753,0.963,1,-5.65,-0.06,22.22
1150,48.040,34.4867177,-80.5930710,143.0,72.17,-0.214,-0.747,0.959,1,-5.26,-0.22,21.77
1151,48.080,34.4867198,-80.5930626,143.0,72.29,-0.210,-0.731,0.954,1,-4.76,-0.39,21.17
1152,48.120,34.4867221,-80.5930544,143.0,72.49,-0.205,-0.711,0.952,1,-4.21,-0.48,20.41
1153,48.160,34.4867245,-80.5930461,143.0,72.78,-0.202,-0.675,0.950,1,-3.43,-0.52,19.44
1154,48.200,34.4867269,-80.5930377,143.0,72.98,-0.203,-0.623,0.950,1,-2.55,-0.46,18.21
1155,48.240,34.4867295,-80.5930293,143.0,73.28,-0.202,-0.549,0.956,1,-1.42,-0.31,16.58
1156,48.280,34.4867321,-80.5930212,143.0,73.29,-0.199,-0.450,0.966,1,-0.13,-0.02,14.36
1157,48.320,34.4867346,-80.5930128,143.0,73.35,-0.194,-0.306,0.984,1,1.46,0.45,11.17
1158,48.360,34.4867372,-80.5930046,143.0,73.53,-0.190,-0.137,0.998,1,2.98,0.92,7.26
1159,48.400,34.4867397,-80.5929961,143.0,73.72,-0.187,0.043,1.011,1,4.17,1.35,2.84
1160,48.440,34.4867421,-80.5929877,143.0,73.97,-0.188,0.223,1.012,1,4.55,1.50,-1.91
1161,48.480,34.4867444,-80.5929791,143.0,74.12,-0.188,0.369,1.005,1,4.07,1.30,-6.22
1162,48.520,34.4867466,-80.5929707,143.0,74.19,-0.189,0.457,0.992,1,2.62,0.94,-9.39
1163,48.560,34.4867488,-80.5929620,143.0,74.25,-0.187,0.483,0.984,1,0.59,0.63,-11.22
1164,48.600,34.4867509,-80.5929534,143.0,74.56,-0.184,0.448,0.979,1,-1.64,0.57,-11.44
1165,48.640,34.4867531,-80.5929448,143.0,74.90,-0.180,0.363,0.983,1,-3.74,0.81,-10.11
1166,48.680,34.4867553,-80.5929362,143.0,74.93,-0.179,0.247,0.990,1,-5.48,1.21,-7.67
1167,48.720,34.4867574,-80.5929274,143.0,74.90,-0.178,0.108,0.995,1,-6.94,1.44,-4.41
1168,48.760,34.4867597,-80.5929189,143.0,74.79,-0.173,-0.061,1.000,1,-8.22,1.37,-0.32
1169,48.800,34.4867620,-80.5929103,143.0,74.82,-0.161,-0.235,1.004,1,-9.01,1.01,4.01
1170,48.840,34.4867644,-80.5929017,143.0,75.14,-0.144,-0.406,1.007,1,-9.33,0.58,8.47
1171,48.880,34.4867669,-80.5928931,143.0,75.42,-0.125,-0.560,1.011,1,-9.12,0.26,12.80
1172,48.920,34.4867696,-80.5928845,143.0,75.25,-0.103,-0.682,1.008,1,-8.12,0.20,17.02
1173,49.000,34.4867753,-80.5928677,143.0,75.15,-0.083,-0.760,1.003,1,-6.86,0.17,20.34
1174,49.040,34.4867782,-80.5928594,143.0,75.02,-0.069,-0.810,1.002,1,-5.76,0.26,22.83
1175,49.080,34.4867813,-80.5928512,143.0,75.07,-0.056,-0.838,1.003,1,-4.85,0.40,24.53
1176,49.120,34.4867845,-80.5928429,143.0,74.91,-0.051,-0.854,1.007,1,-4.21,0.57,25.60
1177,49.160,34.4867878,-80.5928349,143.0,74.96,-0.045,-0.863,1.009,1,-3.88,0.63,25.97
1178,49.200,34.4867913,-80.5928267,143.0,75.00,-0.042,-0.861,1.008,1,-3.61,0.63,26.05
1179,49.240,34.4867948,-80.5928187,143.0,74.70,-0.038,-0.858,1.002,1,-3.49,0.51,25.94
1180,49.280,34.4867984,-80.5928108,143.0,74.57,-0.031,-0.857,1.000,1,-3.59,0.42,25.84
1181,49.320,34.4868021,-80.5928031,143.0,74.60,-0.020,-0.861,1.003,1,-3.95,0.31,25.76
1182,49.360,34.4868058,-80.5927953,143.0,74.39,-0.012,-0.875,1.015,1,-4.40,0.52,25.95
1183,49.400,34.4868098,-80.5927877,143.0,74.20,-0.006,-0.897,1.030,1,-4.84,0.95,26.26
1184,49.440,34.4868138,-80.5927802,143.0,73.95,-0.004,-0.912,1.043,1,-5.06,1.34,26.58
1185,49.480,34.4868179,-80.5927729,143.1,73.54,-0.009,-0.919,1.041,1,-5.00,1.46,26.69
1186,49.520,34.4868222,-80.5927657,143.1,73.81,-0.014,-0.914,1.029,1,-4.62,1.25,26.48
1187,49.560,34.4868265,-80.5927583,143.1,73.58,-0.017,-0.900,1.009,1,-4.41,0.73,25.97
1188,49.600,34.4868308,-80.5927512,143.1,73.66,-0.014,-0.887,0.987,1,-4.20,0.03,25.36
1189,49.640,34.4868353,-80.5927442,143.1,73.62,-0.004,-0.876,0.977,1,-4.12,-0.45,24.85
1190,49.680,34.4868399,-80.5927372,143.1,73.45,0.009,-0.870,0.979,1,-4.24,-0.59,24.51
1191,49.720,34.4868446,-80.5927303,143.1,73.23,0.025,-0.864,0.993,1,-4.24,-0.23,24.35
1192,49.760,34.4868493,-80.5927236,143.1,72.77,0.036,-0.843,1.010,1,-3.92,0.29,23.92
1193,49.800,34.4868541,-80.5927171,143.1,72.71,0.043,-0.805,1.024,1,-3.37,0.94,23.02
1194,49.840,34.4868590,-80.5927106,143.1,72.50,0.043,-0.750,1.030,1,-2.61,1.33,21.36
1195,49.880,34.4868639,-80.5927042,143.1,72.38,0.040,-0.671,1.029,1,-1.70,1.44,18.91
1196,49.920,34.4868688,-80.5926978,143.1,72.21,0.033,-0.570,1.015,1,-1.07,1.22,15.45
1197,50.000,34.4868787,-80.5926852,143.1,71.94,0.025,-0.451,0.993,1,-0.85,0.67,11.55
1198,50.040,34.4868836,-80.5926789,143.1,71.90,0.021,-0.340,0.976,1,-1.10,-0.02,8.02
1199,50.080,34.4868886,-80.5926727,143.1,71.92,0.023,-0.246,0.962,1,-1.64,-0.55,5.31
1200,50.120,34.4868935,-80.5926664,143.1,71.75,0.036,-0.179,0.955,1,-2.41,-0.86,3.57
1201,50.160,34.4868985,-80.5926602,143.1,71.46,0.073,-0.144,0.952,1,-3.18,-1.16,3.01
1202,50.200,34.4869034,-80.5926541,143.1,70.97,0.149,-0.145,0.950,1,-3.80,-1.62,3.47
1203,50.240,34.4869083,-80.5926480,143.1,70.37,0.253,-0.166,0.955,1,-4.27,-2.24,4.43
1204,50.280,34.4869131,-80.5926421,143.1,69.00,0.368,-0.202,0.973,1,-4.66,-2.87,5.77
1205,50.320,34.4869179,-80.5926364,143.1,67.93,0.473,-0.246,0.995,1,-4.92,-3.18,7.39
1206,50.360,34.4869227,-80.5926308,143.1,66.88,0.545,-0.292,1.023,1,-5.02,-2.65,9.28
1207,50.400,34.4869274,-80.5926253,143.1,65.88,0.567,-0.330,1.047,1,-5.04,-1.43,11.01
1208,50.440,34.4869322,-80.5926199,143.1,65.30,0.543,-0.360,1.052,1,-4.99,0.10,12.38
1209,50.480,34.4869369,-80.5926146,143.1,64.97,0.483,-0.382,1.041,1,-4.92,1.43,13.22
1210,50.520,34.4869417,-80.5926094,143.1,64.72,0.408,-0.400,1.030,1,-4.72,2.13,13.42
1211,50.560,34.4869465,-80.5926042,143.0,64.32,0.338,-0.411,1.021,1,-4.35,2.16,13.14
1212,50.600,34.4869513,-80.5925992,143.0,63.89,0.279,-0.417,1.020,1,-3.85,1.86,12.66
1213,50.640,34.4869561,-80.5925941,143.0,63.57,0.235,-0.413,1.024,1,-3.38,1.54,12.21
1214,50.680,34.4869609,-80.5925893,143.0,63.14,0.206,-0.406,1.025,1,-3.07,1.30,11.93
1215,50.720,34.4869658,-80.5925845,143.0,62.85,0.188,-0.399,1.020,1,-3.02,1.19,11.89
1216,50.760,34.4869706,-80.5925797,143.0,62.56,0.175,-0.396,1.015,1,-3.27,1.04,12.08
1217,50.800,34.4869754,-80.5925750,143.0,62.42,0.168,-0.398,1.012,1,-3.76,0.85,12.53
1218,50.840,34.4869803,-80.5925704,143.0,61.87,0.163,-0.409,1.012,1,-4.37,0.69,13.15
1219,50.880,34.4869851,-80.5925660,143.0,61.26,0.155,-0.426,1.010,1,-4.93,0.59,13.87
1220,50.920,34.4869900,-80.5925616,143.0,60.99,0.138,-0.450,1.005,1,-5.40,0.51,14.70
1221,51.000,34.4869999,-80.5925530,143.0,61.03,0.115,-0.485,1.003,1,-5.76,0.44,15.74
1222,51.040,34.4870049,-80.5925488,143.0,60.91,0.091,-0.527,1.001,1,-5.97,0.45,16.91
1223,51.080,34.4870098,-80.5925448,142.9,60.61,0.071,-0.570,1.002,1,-6.02,0.53,18.15
1224,51.120,34.4870149,-80.5925408,142.9,60.27,0.056,-0.609,1.005,1,-5.86,0.56,19.41
1225,51.160,34.4870200,-80.5925369,142.9,60.04,0.048,-0.641,1.011,1,-5.61,0.68,20.58
1226,51.200,34.4870251,-80.5925333,142.9,60.09,0.047,-0.664,1.016,1,-5.38,0.92,21.52
1227,51.240,34.4870303,-80.5925296,142.9,59.89,0.048,-0.679,1.022,1,-5.09,1.13,22.25
1228,51.280,34.4870355,-80.5925261,142.9,59.88,0.049,-0.690,1.030,1,-4.83,1.30,22.80
1229,51.320,34.4870408,-80.5925227,142.9,59.76,0.050,-0.702,1.038,1,-4.70,1.54,23.26
1230,51.360,34.4870461,-80.5925194,142.9,59.63,0.050,-0.712,1.043,1,-4.53,1.75,23.65
1231,51.400,34.4870514,-80.5925163,142.9,59.61,0.048,-0.716,1.038,1,-4.37,1.79,23.99
1232,51.440,34.4870566,-80.5925132,142.9,59.28,0.042,-0.719,1.023,1,-4.33,1.60,24.26
1233,51.480,34.4870620,-80.5925104,142.9,59.31,0.036,-0.719,0.996,1,-4.38,1.02,24.51
1234,51.520,34.4870675,-80.5925075,142.8,59.16,0.032,-0.720,0.972,1,-4.56,0.12,24.76
1235,51.560,34.4870730,-80.5925049,142.8,58.97,0.034,-0.722,0.957,1,-4.86,-0.82,25.09
1236,51.600,34.4870785,-80.5925024,142.8,59.11,0.043,-0.728,0.956,1,-5.24,-1.52,25.55
1237,51.640,34.4870840,-80.5924999,142.8,58.98,0.055,-0.735,0.967,1,-5.69,-1.60,26.15
1238,51.680,34.4870896,-80.5924974,142.8,58.77,0.066,-0.744,0.988,1,-6.06,-1.10,26.73
1239,51.720,34.4870951,-80.5924952,142.8,58.36,0.071,-0.753,1.004,1,-6.27,-0.21,27.14
1240,51.760,34.4871004,-80.5924931,142.8,57.82,0.066,-0.761,1.014,1,-6.28,0.61,27.20
1241,51.800,34.4871061,-80.5924912,142.8,57.76,0.058,-0.762,1.015,1,-6.05,1.14,26.91
1242,51.840,34.4871116,-80.5924895,142.8,57.81,0.046,-0.756,1.013,1,-5.63,1.17,26.32
1243,51.880,34.4871172,-80.5924878,142.8,57.94,0.039,-0.741,1.011,1,-5.11,0.89,25.56
1244,51.920,34.4871228,-80.5924861,142.8,57.66,0.036,-0.705,1.005,1,-4.55,0.50,24.58
1245,52.000,34.4871340,-80.5924832,142.7,57.36,0.035,-0.646,0.997,1,-4.01,0.23,23.19
1246,52.040,34.4871396,-80.5924819,142.7,57.18,0.035,-0.574,0.992,1,-3.57,0.10,21.38
1247,52.080,34.4871452,-80.5924807,142.7,57.23,0.036,-0.494,0.991,1,-3.17,0.07,19.24
1248,52.120,34.4871508,-80.5924793,142.7,57.21,0.033,-0.394,0.993,1,-2.75,0.30,16.37
1249,52.200,34.4871620,-80.5924769,142.7,56.78,0.030,-0.285,1.000,1,-2.30,0.61,13.01
1250,52.240,34.4871676,-80.5924757,142.7,56.70,0.026,-0.175,1.008,1,-1.84,0.88,9.64
1251,52.280,34.4871731,-80.5924745,142.7,56.37,0.021,-0.062,1.015,1,-1.32,1.12,6.23
1252,52.320,34.4871786,-80.5924734,142.7,56.41,0.015,0.056,1.017,1,-0.69,1.33,2.68
1253,52.360,34.4871841,-80.5924720,142.7,56.38,0.005,0.179,1.018,1,-0.04,1.44,-0.99
1254,52.400,34.4871896,-80.5924706,142.6,56.63,-0.010,0.296,1.020,1,0.52,1.55,-4.66
1255,52.440,34.4871951,-80.5924690,142.6,56.44,-0.027,0.407,1.021,1,0.96,1.69,-8.40
1256,52.480,34.4872006,-80.5924674,142.6,56.40,-0.044,0.506,1.019,1,1.11,1.80,-11.99
1257,52.520,34.4872061,-80.5924656,142.6,56.39,-0.064,0.579,1.012,1,0.85,1.78,-15.27
1258,52.560,34.4872115,-80.5924637,142.6,56.48,-0.081,0.622,0.997,1,0.38,1.58,-17.78
1259,52.600,34.4872169,-80.5924618,142.6,56.70,-0.097,0.647,0.980,1,-0.18,1.16,-19.63
1260,52.640,34.4872224,-80.5924598,142.6,56.96,-0.111,0.656,0.968,1,-0.71,0.59,-20.86
1261,52.680,34.4872277,-80.5924576,142.6,57.09,-0.118,0.660,0.961,1,-1.06,0.09,-21.60
1262,52.720,34.4872331,-80.5924554,142.6,56.96,-0.118,0.665,0.959,1,-1.26,-0.26,-22.05
1263,52.760,34.4872385,-80.5924530,142.6,56.99,-0.117,0.672,0.966,1,-1.35,-0.30,-22.43
1264,52.800,34.4872439,-80.5924506,142.6,56.92,-0.116,0.681,0.978,1,-1.37,0.00,-22.76
1265,52.840,34.4872492,-80.5924480,142.5,57.10,-0.119,0.688,0.984,1,-1.43,0.48,-23.01
1266,52.880,34.4872543,-80.5924452,142.5,57.19,-0.127,0.691,0.987,1,-1.52,0.87,-23.13
1267,52.920,34.4872597,-80.5924424,142.5,57.45,-0.133,0.689,0.982,1,-1.67,0.96,-23.08
1268,53.000,34.4872701,-80.5924364,142.5,58.00,-0.123,0.682,0.978,1,-1.83,0.66,-22.98
1269,53.040,34.4872753,-80.5924331,142.5,57.95,-0.100,0.667,0.975,1,-2.06,0.26,-22.86
1270,53.080,34.4872804,-80.5924299,142.5,57.86,-0.071,0.645,0.975,1,-2.31,-0.08,-22.69
1271,53.120,34.4872856,-80.5924266,142.5,57.59,-0.043,0.615,0.978,1,-2.54,-0.24,-22.35
1272,53.160,34.4872906,-80.5924233,142.5,57.55,-0.021,0.575,0.985,1,-2.80,-0.10,-21.70
1273,53.200,34.4872956,-80.5924197,142.4,57.75,-0.015,0.523,0.987,1,-3.13,0.24,-20.55
1274,53.240,34.4873005,-80.5924163,142.4,57.75,-0.016,0.456,0.986,1,-3.46,0.48,-18.71
1275,53.280,34.4873055,-80.5924127,142.4,57.64,-0.018,0.377,0.983,1,-3.90,0.56,-16.36
1276,53.320,34.4873104,-80.5924092,142.4,57.61,-0.018,0.287,0.985,1,-4.47,0.52,-13.61
1277,53.360,34.4873155,-80.5924057,142.4,57.46,-0.015,0.187,0.990,1,-5.05,0.43,-10.57
1278,53.400,34.4873205,-80.5924022,142.4,57.25,-0.012,0.068,0.999,1,-5.78,0.48,-7.03
1279,53.440,34.4873254,-80.5923988,142.4,57.01,-0.008,-0.058,1.006,1,-6.56,0.63,-3.30
1280,53.480,34.4873303,-80.5923953,142.4,57.03,-0.003,-0.189,1.013,1,-7.31,0.83,0.70
1281,53.520,34.4873352,-80.5923920,142.3,56.91,0.001,-0.332,1.015,1,-8.05,0.95,5.21
1282,53.560,34.4873404,-80.5923888,142.3,56.71,0.009,-0.471,1.014,1,-8.53,0.91,9.84
1283,53.600,34.4873455,-80.5923857,142.3,56.78,0.016,-0.590,1.010,1,-8.59,0.68,14.25
1284,53.640,34.4873505,-80.5923828,142.3,56.74,0.020,-0.684,1.002,1,-8.31,0.36,18.48
1285,53.680,34.4873557,-80.5923800,142.3,56.51,0.023,-0.754,0.991,1,-7.80,-0.02,22.13
1286,53.720,34.4873609,-80.5923770,142.3,56.28,0.028,-0.790,0.978,1,-7.17,-0.47,24.89
1287,53.760,34.4873661,-80.5923746,142.3,56.36,0.033,-0.812,0.973,1,-6.78,-0.88,26.99
1288,53.800,34.4873714,-80.5923722,142.2,56.41,0.039,-0.826,0.975,1,-6.48,-1.05,28.52
1289,53.840,34.4873766,-80.5923699,142.2,56.47,0.044,-0.835,0.984,1,-6.36,-0.91,29.52
1290,53.880,34.4873819,-80.5923678,142.2,56.22,0.041,-0.843,0.995,1,-6.36,-0.50,30.20
1291,53.920,34.4873872,-80.5923656,142.2,56.22,0.030,-0.852,1.002,1,-6.25,0.10,30.49
1292,54.000,34.4873981,-80.5923618,142.2,55.85,0.013,-0.852,1.000,1,-6.02,0.49,30.34
1293,54.040,34.4874035,-80.5923602,142.2,55.57,-0.002,-0.847,0.996,1,-5.73,0.55,29.91
1294,54.080,34.4874088,-80.5923588,142.2,55.77,-0.016,-0.835,0.993,1,-5.44,0.42,29.34
1295,54.120,34.4874143,-80.5923574,142.1,55.76,-0.024,-0.819,0.990,1,-5.24,0.17,28.71
1296,54.160,34.4874198,-80.5923562,142.1,55.92,-0.028,-0.795,0.989,1,-5.07,-0.07,28.15
1297,54.200,34.4874254,-80.5923550,142.1,55.91,-0.033,-0.769,0.990,1,-4.90,-0.02,27.65
1298,54.240,34.4874309,-80.5923540,142.1,55.90,-0.045,-0.732,0.987,1,-4.72,0.21,26.91
1299,54.280,34.4874365,-80.5923531,142.1,56.09,-0.061,-0.687,0.984,1,-4.36,0.38,25.78
1300,54.320,34.4874421,-80.5923521,142.1,56.11,-0.078,-0.631,0.985,1,-3.79,0.52,24.20
1301,54.360,34.4874476,-80.5923512,142.1,56.35,-0.089,-0.561,0.991,1,-3.09,0.63,22.10
1302,54.400,34.4874531,-80.5923504,142.1,56.19,-0.095,-0.468,0.997,1,-2.13,0.73,19.34
1303,54.440,34.4874587,-80.5923497,142.0,56.26,-0.100,-0.365,0.998,1,-0.95,0.81,16.21
1304,54.480,34.4874644,-80.5923490,142.0,56.13,-0.109,-0.249,0.992,1,0.41,0.93,12.77
1305,54.520,34.4874700,-80.5923483,142.0,56.30,-0.121,-0.109,0.977,1,2.01,0.82,8.78
1306,54.560,34.4874756,-80.5923474,142.0,56.31,-0.131,0.037,0.962,1,3.62,0.41,4.49
1307,54.600,34.4874811,-80.5923466,142.0,56.64,-0.135,0.186,0.954,1,5.10,-0.10,0.06
1308,54.640,34.4874868,-80.5923455,142.0,56.77,-0.131,0.340,0.955,1,6.18,-0.50,-4.79
1309,54.680,34.4874924,-80.5923443,142.0,56.61,-0.128,0.478,0.964,1,6.78,-0.65,-9.59
1310,54.720,34.4874980,-80.5923431,141.9,56.68,-0.130,0.585,0.974,1,6.78,-0.43,-13.81
1311,54.760,34.4875035,-80.5923416,141.9,56.99,-0.141,0.663,0.977,1,6.18,0.05,-17.31
1312,54.800,34.4875091,-80.5923401,141.9,57.26,-0.155,0.711,0.972,1,5.08,0.42,-19.92
1313,54.840,34.4875149,-80.5923385,141.9,57.55,-0.168,0.731,0.963,1,3.88,0.54,-21.49
1314,54.880,34.4875205,-80.5923366,141.9,57.89,-0.176,0.734,0.957,1,2.75,0.48,-22.38
1315,54.920,34.4875260,-80.5923346,141.9,58.19,-0.181,0.735,0.957,1,1.83,0.35,-22.89
1316,55.000,34.4875373,-80.5923306,141.9,58.58,-0.182,0.733,0.959,1,1.10,0.25,-23.15
1317,55.040,34.4875429,-80.5923284,141.9,58.63,-0.184,0.731,0.962,1,0.61,0.22,-23.23
1318,55.080,34.4875485,-80.5923260,141.8,58.87,-0.187,0.727,0.965,1,0.19,0.30,-23.20
1319,55.120,34.4875540,-80.5923236,141.8,59.27,-0.191,0.725,0.968,1,-0.11,0.33,-23.10
1320,55.160,34.4875595,-80.5923210,141.8,59.34,-0.195,0.721,0.968,1,-0.35,0.35,-22.92
1321,55.200,34.4875651,-80.5923184,141.8,59.49,-0.198,0.716,0.968,1,-0.60,0.41,-22.72
1322,55.240,34.4875706,-80.5923155,141.8,59.49,-0.202,0.709,0.967,1,-0.85,0.50,-22.49
1323,55.280,34.4875760,-80.5923126,141.8,59.86,-0.207,0.702,0.965,1,-1.05,0.53,-22.23
1324,55.320,34.4875815,-80.5923095,141.8,60.21,-0.212,0.695,0.963,1,-1.30,0.53,-21.93
1325,55.360,34.4875870,-80.5923064,141.8,60.46,-0.217,0.683,0.961,1,-1.69,0.47,-21.55
1326,55.400,34.4875926,-80.5923031,141.8,60.65,-0.221,0.664,0.957,1,-2.22,0.36,-21.03
1327,55.440,34.4875979,-80.5922997,141.7,60.95,-0.224,0.639,0.956,1,-2.84,0.21,-20.39
1328,55.480,34.4876034,-80.5922963,141.7,61.24,-0.227,0.605,0.956,1,-3.58,0.15,-19.54
1329,55.520,34.4876088,-80.5922928,141.7,61.66,-0.228,0.560,0.960,1,-4.34,0.30,-18.46
1330,55.560,34.4876143,-80.5922892,141.7,61.92,-0.230,0.506,0.969,1,-4.98,0.57,-17.05
1331,55.600,34.4876197,-80.5922854,141.7,62.20,-0.234,0.448,0.980,1,-5.53,0.91,-15.44
1332,55.640,34.4876251,-80.5922817,141.6,62.27,-0.240,0.381,0.987,1,-5.98,1.25,-13.59
1333,55.680,34.4876306,-80.5922780,141.6,62.43,-0.247,0.304,0.988,1,-6.37,1.37,-11.43
1334,55.720,34.4876361,-80.5922743,141.6,62.72,-0.253,0.222,0.983,1,-6.78,1.25,-9.12
1335,55.760,34.4876416,-80.5922705,141.6,63.17,-0.256,0.133,0.975,1,-7.23,0.94,-6.72
1336,55.800,34.4876472,-80.5922667,141.6,63.58,-0.254,0.037,0.970,1,-7.69,0.59,-4.15
1337,55.840,34.4876529,-80.5922628,141.6,63.76,-0.249,-0.066,0.968,1,-8.23,0.28,-1.39
1338,55.880,34.4876585,-80.5922592,141.5,63.78,-0.238,-0.184,0.970,1,-8.81,0.12,1.73
1339,55.920,34.4876641,-80.5922554,141.5,64.12,-0.222,-0.330,0.978,1,-9.37,0.16,5.80
1340,56.000,34.4876756,-80.5922485,141.5,64.40,-0.200,-0.484,0.989,1,-9.72,0.30,10.51
1341,56.040,34.4876816,-80.5922451,141.5,64.72,-0.178,-0.626,0.996,1,-9.77,0.42,15.19
1342,56.080,34.4876875,-80.5922419,141.4,64.55,-0.157,-0.745,1.000,1,-9.54,0.48,19.58
1343,56.120,34.4876934,-80.5922388,141.4,64.63,-0.139,-0.831,1.003,1,-9.02,0.43,23.38
1344,56.160,34.4876994,-80.5922360,141.4,64.78,-0.125,-0.879,0.999,1,-8.37,0.28,26.05
1345,56.200,34.4877055,-80.5922332,141.4,65.02,-0.117,-0.902,0.989,1,-7.79,0.08,27.72
1346,56.240,34.4877119,-80.5922305,141.4,65.37,-0.110,-0.914,0.982,1,-7.30,-0.11,28.76
1347,56.280,34.4877181,-80.5922279,141.3,65.38,-0.104,-0.923,0.977,1,-6.91,-0.24,29.31
1348,56.320,34.4877243,-80.5922257,141.3,65.33,-0.101,-0.929,0.974,1,-6.59,-0.29,29.43
1349,56.360,34.4877305,-80.5922234,141.3,65.13,-0.099,-0.932,0.975,1,-6.25,-0.28,29.31
1350,56.400,34.4877370,-80.5922214,141.3,65.46,-0.098,-0.929,0.979,1,-5.79,-0.15,28.96
1351,56.440,34.4877433,-80.5922194,141.3,65.57,-0.098,-0.918,0.982,1,-5.22,0.01,28.37
1352,56.480,34.4877498,-80.5922176,141.2,65.86,-0.101,-0.892,0.985,1,-4.46,0.18,27.49
1353,56.520,34.4877563,-80.5922159,141.2,65.94,-0.105,-0.850,0.988,1,-3.52,0.33,26.27
1354,56.560,34.4877627,-80.5922142,141.2,66.07,-0.111,-0.782,0.985,1,-2.35,0.43,24.47
1355,56.600,34.4877692,-80.5922127,141.2,65.89,-0.116,-0.694,0.984,1,-1.10,0.50,22.22
1356,56.640,34.4877757,-80.5922112,141.2,65.93,-0.122,-0.587,0.983,1,0.16,0.51,19.52
1357,56.680,34.4877821,-80.5922099,141.1,66.10,-0.122,-0.466,0.982,1,1.44,0.49,16.44
1358,56.720,34.4877887,-80.5922084,141.1,66.30,-0.117,-0.319,0.986,1,2.76,0.48,12.80
1359,56.760,34.4877953,-80.5922070,141.1,66.30,-0.110,-0.159,0.987,1,4.01,0.44,8.87
1360,56.800,34.4878017,-80.5922056,141.1,66.14,-0.101,0.013,0.986,1,5.16,0.42,4.60
1361,56.840,34.4878082,-80.5922038,141.1,66.16,-0.090,0.190,0.985,1,6.10,0.36,0.00
1362,56.880,34.4878148,-80.5922021,141.1,66.12,-0.078,0.373,0.982,1,6.71,0.17,-5.08
1363,56.920,34.4878211,-80.5922002,141.1,65.93,-0.065,0.540,0.978,1,6.59,-0.04,-10.40
1364,57.000,34.4878341,-80.5921963,141.0,66.22,-0.053,0.676,0.980,1,5.69,0.00,-15.50
1365,57.040,34.4878404,-80.5921941,141.0,65.87,-0.049,0.770,0.977,1,4.38,0.04,-19.61
1366,57.080,34.4878466,-80.5921918,141.0,65.80,-0.048,0.827,0.969,1,2.90,0.05,-22.49
1367,57.120,34.4878530,-80.5921893,141.0,65.89,-0.050,0.854,0.962,1,1.49,-0.07,-24.02
1368,57.160,34.4878592,-80.5921868,141.0,66.09,-0.050,0.861,0.958,1,0.36,-0.24,-24.49
1369,57.200,34.4878654,-80.5921843,141.1,65.88,-0.050,0.860,0.960,1,-0.32,-0.34,-24.43
1370,57.240,34.4878716,-80.5921814,141.1,66.01,-0.047,0.860,0.970,1,-0.67,-0.18,-24.39
1371,57.280,34.4878779,-80.5921784,141.1,66.00,-0.048,0.859,0.983,1,-0.82,0.31,-24.37
1372,57.320,34.4878840,-80.5921752,141.0,66.12,-0.056,0.856,0.997,1,-0.89,0.98,-24.24
1373,57.360,34.4878901,-80.5921719,141.0,66.47,-0.069,0.850,1.005,1,-0.95,1.52,-23.91
1374,57.400,34.4878959,-80.5921685,141.0,66.19,-0.083,0.840,1.007,1,-1.13,1.77,-23.36
1375,57.440,34.4879018,-80.5921650,141.0,66.03,-0.098,0.822,1.002,1,-1.49,1.67,-22.68
1376,57.480,34.4879079,-80.5921613,141.0,66.44,-0.112,0.796,0.995,1,-1.88,1.39,-21.97
1377,57.520,34.4879138,-80.5921576,141.0,66.73,-0.123,0.759,0.988,1,-2.29,1.10,-21.25
1378,57.560,34.4879196,-80.5921537,141.0,66.90,-0.133,0.715,0.977,1,-2.70,0.86,-20.43
1379,57.600,34.4879256,-80.5921497,140.9,67.63,-0.143,0.657,0.969,1,-3.30,0.68,-19.24
1380,57.640,34.4879316,-80.5921456,140.9,67.82,-0.152,0.588,0.972,1,-4.05,0.73,-17.64
1381,57.680,34.4879375,-80.5921415,140.9,67.72,-0.158,0.512,0.980,1,-4.93,0.89,-15.61
1382,57.720,34.4879431,-80.5921373,140.9,67.41,-0.165,0.419,0.984,1,-6.21,1.15,-13.01
1383,57.760,34.4879490,-80.5921333,140.9,67.07,-0.173,0.310,0.990,1,-7.74,1.48,-10.05
1384,57.800,34.4879548,-80.5921291,140.9,67.51,-0.184,0.190,0.988,1,-9.37,1.61,-6.88
1385,57.840,34.4879608,-80.5921250,140.9,68.27,-0.188,0.028,0.983,1,-11.22,1.35,-2.96
1386,57.920,34.4879728,-80.5921168,140.9,68.39,-0.180,-0.212,0.988,1,-12.54,1.11,3.07
1387,58.000,34.4879850,-80.5921092,140.9,68.28,-0.170,-0.439,0.995,1,-12.93,0.94,9.10
1388,58.040,34.4879912,-80.5921057,140.8,68.73,-0.157,-0.641,1.001,1,-12.36,0.78,14.98
1389,58.080,34.4879974,-80.5921022,140.8,68.78,-0.141,-0.804,0.997,1,-10.95,0.59,20.11
1390,58.120,34.4880039,-80.5920989,140.8,68.75,-0.130,-0.904,0.985,1,-8.84,0.39,23.93
1391,58.160,34.4880101,-80.5920956,140.8,68.87,-0.124,-0.926,0.968,1,-6.98,0.00,25.58
1392,58.200,34.4880167,-80.5920926,140.8,69.33,-0.112,-0.935,0.954,1,-5.65,-0.47,26.58
1393,58.240,34.4880232,-80.5920896,140.8,69.35,-0.101,-0.938,0.952,1,-4.76,-0.69,27.14
1394,58.280,34.4880297,-80.5920869,140.7,69.27,-0.089,-0.941,0.968,1,-4.49,-0.49,27.60
1395,58.320,34.4880363,-80.5920841,140.7,69.24,-0.085,-0.946,0.986,1,-4.47,0.00,27.93
1396,58.360,34.4880429,-80.5920817,140.7,69.15,-0.090,-0.944,1.001,1,-4.31,0.58,27.94
1397,58.400,34.4880497,-80.5920793,140.7,69.85,-0.097,-0.936,1.014,1,-4.17,1.07,27.56
1398,58.440,34.4880565,-80.5920772,140.7,70.04,-0.103,-0.919,1.020,1,-3.84,1.20,26.75
1399,58.480,34.4880633,-80.5920750,140.7,69.59,-0.108,-0.888,1.023,1,-3.28,1.22,25.64
1400,58.520,34.4880700,-80.5920731,140.7,69.62,-0.110,-0.845,1.026,1,-2.63,1.26,24.38
1401,58.560,34.4880769,-80.5920712,140.7,69.98,-0.107,-0.790,1.031,1,-1.88,1.40,23.03
1402,58.600,34.4880838,-80.5920694,140.7,70.10,-0.112,-0.711,1.030,1,-0.82,1.60,21.32
1403,58.640,34.4880907,-80.5920678,140.7,70.02,-0.122,-0.612,1.014,1,0.33,1.69,19.20
1404,58.680,34.4880976,-80.5920662,140.7,69.83,-0.132,-0.495,0.991,1,1.57,1.36,16.59
1405,58.720,34.4881044,-80.5920646,140.7,69.84,-0.134,-0.359,0.966,1,2.83,0.58,13.42
1406,58.760,34.4881114,-80.5920628,140.6,70.23,-0.123,-0.196,0.945,1,4.06,-0.48,9.51
1407,58.800,34.4881183,-80.5920611,140.6,70.24,-0.098,-0.021,0.941,1,5.15,-1.28,5.28
1408,58.840,34.4881252,-80.5920592,140.6,70.44,-0.065,0.161,0.953,1,5.92,-1.47,0.74
1409,58.880,34.4881320,-80.5920573,140.6,69.92,-0.038,0.350,0.968,1,6.29,-1.07,-4.22
1410,58.920,34.4881389,-80.5920554,140.6,69.92,-0.018,0.533,0.984,1,5.99,-0.48,-9.49
1411,59.000,34.4881523,-80.5920508,140.6,69.89,-0.005,0.685,0.993,1,4.97,-0.01,-14.55
1412,59.040,34.4881590,-80.5920484,140.6,69.75,0.001,0.795,0.989,1,3.55,0.23,-18.86
1413,59.080,34.4881657,-80.5920458,140.6,69.93,0.001,0.865,0.981,1,2.16,0.20,-22.23
1414,59.120,34.4881724,-80.5920431,140.6,69.69,0.003,0.902,0.972,1,0.95,-0.08,-24.46
1415,59.160,34.4881788,-80.5920403,140.6,69.40,0.007,0.915,0.969,1,0.21,-0.20,-25.63
1416,59.200,34.4881853,-80.5920374,140.6,69.27,0.011,0.923,0.972,1,-0.12,-0.10,-26.06
1417,59.240,34.4881916,-80.5920342,140.6,68.99,0.012,0.927,0.982,1,-0.28,0.21,-26.21
1418,59.280,34.4881981,-80.5920309,140.6,69.29,0.010,0.930,0.989,1,-0.38,0.58,-26.15
